[2024-07-23 13:58:09.542888] [0x0000007fa7966010] [LogDataTag] [0x00003de4] [1] , Controller Time [s], Algorithm Execution Time [us], Mode [-], Switch button [-], Coefficient of Lift Upper wing [-], Coefficient of Lift Lower wing [-], Coefficient of Lift Left stabilizer [-], Coefficient of Lift Right stabilizer [-], Coefficient of Drag Upper wing [-], Coefficient of Drag Lower wing [-], Coefficient of Drag Left stabilizer [-], Coefficient of Drag Right stabilizer [-], Coefficient of Aero Moment Upper wing [-], Coefficient of Aero Moment Lower wing [-], Coefficient of Aero Moment Left stabilizer [-], Coefficient of Aero Moment Right stabilizer [-], Aero F_x in Quadcopter Frame [N], Aero F_y in Quadcopter Frame [N], Aero F_z in Quadcopter Frame [N], Aero Moment_x in Chosen Frame [Nm], Aero Moment_y in Chosen Frame [Nm], Aero Moment_z in Chosen Frame [Nm], Squared Norm of Velocity [-], Position x [m], Position y [m], Position z [m], Velocity x [m/s], Velocity y [m/s], Velocity z [m/s], Reference Position x [m], Reference Position y [m], Reference Position z [m], Reference Velocity x [m/s], Reference Velocity y [m/s], Reference Velocity z [m/s], Reference Acceleration x [m/s^2], Reference Acceleration y [m/s^2], Reference Acceleration z [m/s^2], User Position x [m], User Position y [m], User Position z [m], User Velocity x [m/s], User Velocity y [m/s], User Velocity z [m/s], User Acceleration x [m/s^2], User Acceleration y [m/s^2], User Acceleration z [m/s^2], Error in x [m], Error in y [m], Error in z [m], Error in vx [m/s], Error in vy [m/s], Error in vz [m/s], Integral Error in x [m], Integral Error in y [m], Integral Error in z [m], Reference Error in x [m], Reference Error in y [m], Reference Error in z [m], Integral Reference Error in x [m], Integral Reference Error in y [m], Integral Reference Error in z [m], Reference Command in x [-], Reference Command in y [-], Reference Command in z [-], mu_baseline x [N], mu_baseline y [N], mu_baseline z [N], mu_adaptive x [N], mu_adaptive y [N], mu_adaptive z [N], mu in Body x [N], mu in Body y [N], mu in Body z [N], Desired Phi [rad], Desired Theta [rad], Desired Psi [rad], Desired Phi Rate [rad/s], Desired Theta Rate [rad/s], Desired Psi Rate [rad/s], Phi in Use [rad], Theta in Use [rad], Psi in Use [rad], Phi Quadcopter [rad], Theta Quadcopter [rad], Psi Quadcopter [rad], Phi Biplane [rad], Theta Biplane [rad], Psi Biplane [rad], Phi Rate in use [rad/s], Theta Rate in use [rad/s], Psi Rate in use [rad/s], Error in Phi [rad], Error in Theta [rad], Error in Psi [rad], Integral Error in Phi [rad], Integral Error in Theta [rad], Integral Error in Psi [rad], Error in Phi Rate [rad/s], Error in Theta Rate [rad/s], Error in Psi Rate [rad/s], Omega Cmd x [-], Omega Cmd y [-], Omega Cmd z [-], Reference Error in omega x [rad/s], Reference Error in omega y [rad/s], Reference Error in omega z [rad/s], Integral Reference Error in omega x [rad/s], Integral Reference Error in omega y [rad/s], Integral Reference Error in omega z [rad/s], Reference omega x [rad/s], Reference omega y [rad/s], Reference omega z [rad/s], Referemce angular acceleration x [rad/s^2], Referemce angular acceleration y [rad/s^2], Referemce angular acceleration z [rad/s^2], omega x [rad/s], omega y [rad/s], omega z [rad/s], tau_baseline x [Nm], tau_baseline y [Nm], tau_baseline z [Nm], tau_adaptive x [Nm], tau_adaptive y [Nm], tau_adaptive z [Nm], Control input 1 [N], Control input 2 [N], Control input 3 [N], Control input 4 [N], Thrust Motor 1 [N], Thrust Motor 2 [N], Thrust Motor 3 [N], Thrust Motor 4 [N], Normalized Thrust 1 [-], Normalized Thrust 2 [-], Normalized Thrust 3 [-], Normalized Thrust 4 [-], error in Omega x [rad/s], error in Omega y [rad/s], error in Omega z [rad/s], 
[2024-07-23 13:58:19.013924] [0x0000007f8defc9a0] [LogDataTag] [0x00003de4] [3226] , 10.0116, 1596, 0, 0, 134.018, 0, 0, -4.86072, -0.650094, 0.00470543, 0.00470543, -0.801785, -0.3, 0, 0, -0.3, -4.65242e-06, -2.1839e-07, 0, 0, 0, 0, 0.000106152, 1.32956e-05, -1.38581e-06, 2.97576e-05, 0.00157212, -0.00322661, 0.00965761, 0, 0, 0, 0, 0, 0, 0, 0, -0.000232196, 0, 0, -2.48078e-09, 0, 0, -8.52002e-07, 0, 0, -0.000219203, 1.32956e-05, -1.38581e-06, 2.97576e-05, 0.00157212, -0.00322661, 0.00965761, 0, 0, 0, 0, 0, 2.48078e-09, 0, 0, 0, 0, 0, -0.000452914, -0.0296112, 0.0598455, -19.3749, 0, 0, 0, -0.0382456, 0.565134, -19.3668, 0.0291723, 0.0019748, 0, 0, 0, 0, -0.0260835, -0.000445791, 4.71075e-05, -0.0260835, -0.000445791, 4.71075e-05, -2.06466e-05, 1.55235, 2.06466e-05, 0.00870667, -0.0241954, 0.00716272, -0.0552558, -0.00242059, 4.71075e-05, 0, 0, 0, 0.00870667, -0.0241954, 0.00716272, 0.00497302, 0.000217804, 4.7399e-06, -0.00497302, -0.000217804, -4.7399e-06, 0, 0, 0, 0, 0, 0, 0.0590859, 0.00480275, -7.89853e-05, 0.00870986, -0.024374, 0.00652925, 0.0311262, 0.00327391, -0.00341795, 0, 0, 0, 19.375, 0.0311262, 0.00327391, -0.00341795, 4.77345, 4.89726, 4.93086, 4.77346, 0.36652, 0.373216, 0.37502, 0.366521, 0.00870986, -0.024374, 0.00652925, 
[2024-07-23 13:58:19.023816] [0x0000007f8defc9a0] [LogDataTag] [0x00003de4] [3230] , 10.0216, 1547, 0, 0, 134.001, 0, 0, -2.00537, -0.649534, 0.00470543, 0.00470543, 0.00472095, -0.3, 0, 0, -0.152411, -4.89994e-06, 2.12849e-06, 0, 0, 0, 0, 0.00012284, 2.8912e-05, -5.78165e-06, 9.96143e-05, 0.00148722, -0.00314788, 0.0105223, 0, 0, 0, 0, 0, -2.32196e-06, 0, 0, -0.000799365, 0, 0, -2.94648e-08, 0, 0, -5.4346e-06, 0, 0, -0.000750141, 2.8912e-05, -5.78165e-06, 9.96143e-05, 0.00148722, -0.00314788, 0.0105246, 1.32956e-07, -1.38581e-08, 2.97576e-07, 0, 0, 2.94648e-08, 0, 0, 2.48078e-11, 0, 0, -0.00162715, -0.0286014, 0.0585616, -19.4021, 0, 0, 0, -0.0370928, 0.563936, -19.394, 0.0290697, 0.00191259, 0, 0.466757, 0.0315968, 0, -0.0260514, -0.000437786, 4.39904e-05, -0.0260514, -0.000437786, 4.39904e-05, -1.91438e-05, 1.55238, 1.91438e-05, 0.012993, -0.0186058, 0.00322631, -0.0551211, -0.00235038, 4.39904e-05, -0.000552558, -2.42059e-05, 4.71075e-07, -0.453764, -0.0502026, 0.00322631, 0.471719, 0.0317977, 0.000827677, -0.471129, -0.0317497, -0.000828467, -4.97302e-05, -2.17804e-06, -4.7399e-08, 0.000590859, 4.80275e-05, -7.89853e-07, 5.69458, 0.385534, 0.00129686, 0.0129944, -0.0186835, 0.00274056, 0.102599, 0.00578744, -0.00140458, 0, 0, 0, 19.4022, 0.102599, 0.00578744, -0.00140458, 4.6302, 5.06399, 5.10057, 4.60743, 0.358678, 0.382114, 0.384049, 0.357422, 0.0124035, -0.0187315, 0.00274135, 
[2024-07-23 13:58:19.033807] [0x0000007f8defc9a0] [LogDataTag] [0x00003de4] [3234] , 10.0316, 1552, 0, 0, 134.001, 0, 0, -2.00537, -0.649534, 0.00470543, 0.00470543, 0.00472095, -0.3, 0, 0, -0.152411, -4.89994e-06, 2.12849e-06, 0, 0, 0, 0, 0.00012284, 2.8912e-05, -5.78165e-06, 9.96143e-05, 0.00148722, -0.00314788, 0.0105223, 0, 0, -2.32196e-08, 0, 0, -1.03156e-05, 0, 0, -0.00169907, 0, 0, -1.34373e-07, 0, 0, -1.69086e-05, 0, 0, -0.00159061, 2.8912e-05, -5.78165e-06, 9.96375e-05, 0.00148722, -0.00314788, 0.0105326, 4.22075e-07, -7.16746e-08, 1.29372e-06, 0, 0, 1.11154e-07, 0, 0, 3.19456e-10, 0, 0, -0.00361986, -0.0286024, 0.0585618, -19.404, 0, 0, 0, -0.0370946, 0.563987, -19.3959, 0.0290694, 0.0019125, 0, 0.595807, 0.0394486, 0, -0.0260514, -0.000437786, 4.39904e-05, -0.0260514, -0.000437786, 4.39904e-05, -1.91438e-05, 1.55238, 1.91438e-05, 0.012993, -0.0186058, 0.00322631, -0.0551208, -0.00235028, 4.39904e-05, -0.00110377, -4.77097e-05, 9.10979e-07, -0.582814, -0.0580544, 0.00322631, 0.600772, 0.0396469, 0.0010322, -0.543235, -0.0357435, -0.00102002, -0.00476102, -0.000319675, -8.33206e-06, 0.0575367, 0.00390336, 1.21787e-05, 6.57218, 0.434216, 0.00159971, 0.0129944, -0.0186835, 0.00274056, 0.122567, 0.00655462, -0.00136884, 0, 0, 0, 19.4041, 0.122567, 0.00655462, -0.00136884, 4.58765, 5.1077, 5.14804, 4.56076, 0.356329, 0.384425, 0.38655, 0.35484, -0.0445423, -0.0225869, 0.00272839, 
[2024-07-23 13:58:19.043590] [0x0000007f8defc9a0] [LogDataTag] [0x00003de4] [3239] , 10.0416, 1375, 0, 0, 0, 0, 0, 0, 0.00470543, 0.00470543, 0.00470543, 0.00470543, 0, 0, 0, 0, 2.37275e-10, 0, 0, 0, 0, 0, 1.96574e-05, -6.07129e-05, -2.42889e-06, 0.000160083, -0.000671721, -0.00424698, 0.00108135, 0, 0, -1.26376e-07, 0, 0, -2.73063e-05, 0, 0, -0.00291314, 0, 0, -4.00275e-07, 0, 0, -3.82228e-05, 0, 0, -0.00272583, -6.07129e-05, -2.42889e-06, 0.00016021, -0.000671721, -0.00424698, 0.00110865, 7.11195e-07, -1.29491e-07, 2.29009e-06, 0, 0, 2.73899e-07, 0, 0, 1.43099e-09, 0, 0, -0.00650242, 0.0146333, 0.0787954, -19.1789, 0, 0, 0, 0.00776285, 0.578589, -19.1703, 0.0301723, -0.000404941, 0, 0.557255, 0.0365901, 0, -0.0260639, -0.000358048, -4.35631e-05, -0.0260639, -0.000358048, -4.35631e-05, 2.41147e-05, 1.55236, -2.41147e-05, -0.0107687, 0.00954842, -0.00378374, -0.0562362, 4.68925e-05, -4.35631e-05, -0.00165498, -7.12125e-05, 1.35088e-06, -0.568024, -0.0270416, -0.00378374, 0.562322, 0.0365736, 0.000954327, -0.439064, -0.0283281, -0.000926151, -0.0101934, -0.00067711, -1.85323e-05, 0.123258, 0.00824553, 2.81758e-05, 7.07195, 0.460907, 0.00548089, -0.01077, 0.00964379, -0.00353362, 0.175101, 0.00492967, 0.00217165, 0, 0, 0, 19.1791, 0.175101, 0.00492967, 0.00217165, 4.41726, 5.18295, 5.19755, 4.38131, 0.346826, 0.388383, 0.389148, 0.344801, -0.134029, 0.00139826, -0.00356179, 
[2024-07-23 13:58:19.053635] [0x0000007f8defc9a0] [LogDataTag] [0x00003de4] [3243] , 10.0516, 1390, 0, 0, 0, 0, 0, 0, 0.00470543, 0.00470543, 0.00470543, 0.00470543, 0, 0, 0, 0, 2.37275e-10, 0, 0, 0, 0, 0, 1.96574e-05, -6.07129e-05, -2.42889e-06, 0.000160083, -0.000671721, -0.00424698, 0.00108135, 0, 0, -3.99438e-07, 0, 0, -5.64377e-05, 0, 0, -0.00443839, 0, 0, -9.4213e-07, 0, 0, -7.24121e-05, 0, 0, -0.00415207, -6.07129e-05, -2.42889e-06, 0.000160483, -0.000671721, -0.00424698, 0.00113778, 1.04066e-07, -1.5378e-07, 3.89219e-06, 0, 0, 5.42691e-07, 0, 0, 4.16998e-09, 0, 0, -0.0103757, 0.0146354, 0.0787955, -19.1826, 0, 0, 0, 0.00776365, 0.578686, -19.1741, 0.0301715, -0.000404904, 0, 0.468778, -0.0076011, 0, -0.0260639, -0.000358048, -4.35631e-05, -0.0260639, -0.000358048, -4.35631e-05, 2.41147e-05, 1.55236, -2.41147e-05, -0.0107687, 0.00954842, -0.00378374, -0.0562354, 4.68557e-05, -4.35631e-05, -0.00221734, -7.07436e-05, 9.15252e-07, -0.479547, 0.0171495, -0.00378374, 0.473847, -0.00760251, -0.000197331, -0.279869, 0.0204571, 0.000280316, -0.014584, -0.000960391, -2.77938e-05, 0.193978, 0.0128546, 8.29847e-05, 6.51342, -0.0397783, 0.00480359, -0.01077, 0.00964379, -0.00353362, 0.20347, 0.00232482, 0.00222308, 0, 0, 0, 19.1828, 0.20347, 0.00232482, 0.00222308, 4.34757, 5.25476, 5.25575, 4.32472, 0.342895, 0.392135, 0.392187, 0.3416, -0.204748, -0.00321081, -0.0036166, 
[2024-07-23 13:58:19.063827] [0x0000007f8defc9a0] [LogDataTag] [0x00003de4] [3248] , 10.0616, 1479, 0, 0, 0, 0, 0, -4.85157, 0.00470543, 0.00470543, 0.00470543, -0.80038, 0, 0, 0, -0.3, -2.669e-08, -1.53033e-07, 0, 0, 0, 0, 9.48573e-05, -0.000118474, 6.02007e-06, 0.000155896, -0.00202553, -0.00353522, 0.00884629, 0, 0, -9.63815e-07, 0, 0, -0.000100822, 0, 0, -0.00625381, 0, 0, -1.89947e-06, 0, 0, -0.000122145, 0, 0, -0.00585342, -0.000118474, 6.02007e-06, 0.00015686, -0.00202553, -0.00353522, 0.00894711, -5.03063e-07, -1.78069e-07, 5.49702e-06, 0, 0, 9.35659e-07, 0, 0, 9.59689e-09, 0, 0, -0.0153101, 0.0418061, 0.0652701, -19.3779, 0, 0, 0, 0.0331154, 0.570618, -19.3696, 0.0294509, -0.00170966, 0, 0.354831, -0.0258284, 0, -0.0260828, -0.000448712, 6.70136e-05, -0.0260828, -0.000448712, 6.70136e-05, -3.05807e-05, 1.55235, 3.05807e-05, 0.00640207, -0.00325037, 0.0241856, -0.0555338, 0.00126095, 6.70136e-05, -0.00277969, -7.02751e-05, 4.79621e-07, -0.348429, 0.0225781, 0.0241856, 0.359839, -0.0259328, -0.0006779, -0.100727, 0.0383896, 0.00080892, -0.0173827, -0.00075582, -2.49906e-05, 0.259112, 0.0124568, 0.000131021, 4.44973, -0.251483, 0.00352851, 0.00641292, -0.00388002, 0.0240926, 0.185771, 0.00142131, -0.0113007, 0, 0, 0, 19.378, 0.185771, 0.00142131, -0.0113007, 4.40079, 5.23266, 5.29551, 4.44906, 0.345899, 0.390983, 0.394255, 0.348611, -0.252699, -0.0163368, 0.0239615, 
[2024-07-23 13:58:19.073608] [0x0000007f8defc9a0] [LogDataTag] [0x00003de4] [3252] , 10.0716, 1390, 0, 0, 0, 0, 0, -2.00476, 0.00470543, 0.00470543, 0.00470543, 0.00472265, 0, 0, 0, -0.152293, -4.65648e-11, -3.15826e-08, 0, 0, 0, 0, 4.73755e-05, -0.000204928, 9.96888e-06, 0.000140592, -0.00532765, -0.00356007, -0.00251348, 0, 0, -1.97203e-06, 0, 0, -0.00016336, 0, 0, -0.00835969, 0, 0, -3.44633e-06, 0, 0, -0.000190363, 0, 0, -0.00782769, -0.000204928, 9.96888e-06, 0.000142564, -0.00532765, -0.00356007, -0.00235012, -1.6878e-06, -1.17868e-07, 7.06561e-06, 0, 0, 1.4743e-06, 0, 0, 1.89535e-08, 0, 0, -0.0214166, 0.106116, 0.0655733, -19.1034, 0, 0, 0, 0.100531, 0.566168, -19.0951, 0.0296408, -0.00526473, 0, 0.236392, -0.050592, 0, -0.0262111, -0.000293822, 0.000427482, -0.0262111, -0.000293822, 0.000427482, -0.000211815, 1.55226, 0.000211815, -0.036149, 0.0172696, 0.0367515, -0.0558519, 0.0049709, 0.000427482, -0.00333503, -5.76656e-05, 1.14976e-06, -0.272541, 0.0678617, 0.0367515, 0.24143, -0.0510215, -0.00134619, 0.0621791, 0.0609634, 0.0015125, -0.01839, -0.000371923, -1.69014e-05, 0.303609, 0.00994199, 0.000166306, 1.42773, -0.74189, -0.00587484, -0.0361382, 0.0163005, 0.0371915, 0.141419, -0.00862793, -0.0177766, 0, 0, 0, 19.1038, 0.141419, -0.00862793, -0.0177766, 4.39071, 5.07377, 5.11693, 4.52235, 0.345331, 0.382632, 0.384912, 0.352705, -0.339748, 0.00635853, 0.0370252, 
[2024-07-23 13:58:19.083644] [0x0000007f8defc9a0] [LogDataTag] [0x00003de4] [3257] , 10.0816, 1448, 0, 0, 0, 0, -2.00591, 0, 0.00470543, 0.00470543, 0.00471949, 0.00470543, 0, 0, -0.152518, 0, -5.29267e-11, -3.51916e-08, 0, 0, 0, 0, 5.27589e-05, -0.000297952, 1.11759e-06, 0.000101626, -0.0035286, -0.00277525, 0.00571016, 0, 0, -3.60563e-06, 0, 0, -0.000246957, 0, 0, -0.010741, 0, 0, -5.77924e-06, 0, 0, -0.000279659, 0, 0, -0.0100633, -0.000297952, 1.11759e-06, 0.000105232, -0.0035286, -0.00277525, 0.00595711, -3.73708e-06, -1.81794e-08, 8.49126e-06, 0, 0, 2.17361e-06, 0, 0, 3.36964e-08, 0, 0, -0.0287815, 0.0761396, 0.0513821, -19.3096, 0, 0, 0, 0.0656143, 0.56071, -19.3016, 0.0290416, -0.00339941, 0, 0.149494, -0.110274, 0, -0.0263826, -0.000546274, 0.000447271, -0.0263826, -0.000546274, 0.000447271, -0.000220032, 1.55213, 0.000220032, -0.028761, -0.0311012, -0.0226756, -0.0554242, 0.00285313, 0.000447271, -0.00389355, -7.95652e-06, 5.42457e-06, -0.178255, 0.0791731, -0.0226756, 0.154496, -0.110492, -0.00292474, 0.163391, 0.113015, 0.0030323, -0.0177682, 0.000237711, -1.77643e-06, 0.317887, 0.00252309, 0.000107557, -1.55463, -1.59643, -0.0151328, -0.0287734, -0.0304922, -0.0234881, 0.0722039, -0.0134459, 0.0104676, 0, 0, 0, 19.3099, 0.0722039, -0.0134459, 0.0104676, 4.65564, 5.05075, 4.93034, 4.67313, 0.360079, 0.381413, 0.374992, 0.361039, -0.34666, -0.0330153, -0.0235957, 
[2024-07-23 13:58:19.093725] [0x0000007f8defc9a0] [LogDataTag] [0x00003de4] [3261] , 10.0916, 1523, 0, 0, -4.84276, 0, 0, -2.00516, -0.799026, 0.00470543, 0.00470543, 0.00472153, -0.3, 0, 0, -0.15237, -2.27214e-08, -3.29192e-08, 0, 0, 0, 0, 2.97166e-05, -0.000583513, -5.77718e-05, 6.72042e-06, -0.00376732, -0.00330912, -0.0021386, 0, 0, -6.07519e-06, 0, 0, -0.000354367, 0, 0, -0.013374, 0, 0, -9.11145e-06, 0, 0, -0.000392262, 0, 0, -0.012544, -0.000583513, -5.77718e-05, 1.27956e-05, -0.00376732, -0.00330912, -0.00178423, -6.71661e-06, -7.00355e-09, 9.54357e-06, 0, 0, 3.03625e-06, 0, 0, 5.54326e-08, 0, 0, -0.0374744, 0.0908671, 0.0636182, -19.1182, 0, 0, 0, 0.0855132, 0.570402, -19.1099, 0.0298394, -0.00447479, 0, 0.0777528, -0.0890455, 0, -0.026511, -0.000279293, -0.000225818, -0.026511, -0.000279293, -0.000225818, 0.00011476, 1.55205, -0.00011476, -0.0564496, 0.0787409, 0.0290507, -0.0563505, 0.00419549, -0.000225818, -0.00444779, 2.05748e-05, 9.89728e-06, -0.134202, 0.167786, 0.0290507, 0.0828399, -0.0893919, -0.00236599, 0.219501, 0.0759507, 0.00232222, -0.0161343, 0.00136787, 2.85466e-05, 0.30234, -0.0134412, -4.37707e-05, -4.09252, -1.36588, -0.022331, -0.0564415, 0.0779432, 0.0311278, 0.00837708, -0.0266747, -0.0135682, 0, 0, 0, 19.1186, 0.00837708, -0.0266747, -0.0135682, 4.65898, 4.8336, 4.76353, 4.86247, 0.360262, 0.369783, 0.365981, 0.371342, -0.358782, 0.0913844, 0.0311716, 
[2024-07-23 13:58:19.103667] [0x0000007f8defc9a0] [LogDataTag] [0x00003de4] [3266] , 10.1016, 1477, 0, 0, -4.84276, 0, 0, -2.00516, -0.799026, 0.00470543, 0.00470543, 0.00472153, -0.3, 0, 0, -0.15237, -2.27214e-08, -3.29192e-08, 0, 0, 0, 0, 2.97166e-05, -0.000583513, -5.77718e-05, 6.72042e-06, -0.00376732, -0.00330912, -0.0021386, 0, 0, -9.61886e-06, 0, 0, -0.000488107, 0, 0, -0.0162831, 0, 0, -1.37178e-05, 0, 0, -0.000531492, 0, 0, -0.0152791, -0.000583513, -5.77718e-05, 1.63393e-05, -0.00376732, -0.00330912, -0.00165049, -1.25517e-05, -5.84722e-07, 9.67153e-06, 0, 0, 4.09892e-06, 0, 0, 8.57951e-08, 0, 0, -0.0476562, 0.0908876, 0.0636202, -19.1274, 0, 0, 0, 0.0855311, 0.570648, -19.1191, 0.0298379, -0.00447357, 0, 0.0465111, -0.0826637, 0, -0.026511, -0.000279293, -0.000225818, -0.026511, -0.000279293, -0.000225818, 0.00011476, 1.55205, -0.00011476, -0.0564496, 0.0787409, 0.0290507, -0.056349, 0.00419428, -0.000225818, -0.00501129, 6.25297e-05, 7.6391e-06, -0.102961, 0.161405, 0.0290507, 0.0516001, -0.0830123, -0.0021968, 0.209815, 0.0559122, 0.00192972, -0.0139393, 0.00212737, 5.17688e-05, 0.261415, -0.0271001, -0.000267081, -5.33227, -1.39349, -0.0283004, -0.0564415, 0.0779432, 0.0311278, -0.0383062, -0.0313153, -0.0136512, 0, 0, 0, 19.1278, -0.0383062, -0.0313153, -0.0136512, 4.75462, 4.74216, 4.64869, 4.98231, 0.365495, 0.364816, 0.359697, 0.377771, -0.317857, 0.105043, 0.0313949, 
[2024-07-23 13:58:19.113687] [0x0000007f8defc9a0] [LogDataTag] [0x00003de4] [3270] , 10.1116, 1458, 0, 0, -4.85968, 0, 0, 0.000435999, -0.801626, 0.00470543, 0.00470543, 0.00470544, -0.3, 0, 0, 5.99109e-06, -1.54515e-08, -9.03415e-09, 0, 0, 0, 0, 2.04923e-05, -0.000682769, -3.3617e-05, -5.26458e-05, -0.00395347, -7.25685e-06, -0.00220508, 0, 0, -1.44999e-05, 0, 0, -0.000650938, 0, 0, -0.0194239, 0, 0, -1.98462e-05, 0, 0, -0.00069894, 0, 0, -0.0182431, -0.000682769, -3.3617e-05, -3.81459e-05, -0.00395347, -7.25685e-06, -0.00155414, -1.83869e-05, -1.16244e-06, 9.83492e-06, 0, 0, 5.34632e-06, 0, 0, 1.26784e-07, 0, 0, -0.0593656, 0.0979355, 0.00147623, -19.1322, 0, 0, 0, 0.092592, 0.512448, -19.1254, 0.0267874, -0.00484127, 0, 0.0252991, -0.06661, 0, -0.0267111, -0.000279298, 0.000103307, -0.0267111, -0.000279298, 0.000103307, -4.97884e-05, 1.55191, 4.97884e-05, -0.0696108, 0.100724, 0.0446927, -0.0534984, 0.00456197, 0.000103307, -0.00557478, 0.000104473, 5.38092e-06, -0.0949099, 0.167334, 0.0446927, 0.0301335, -0.066997, -0.0017921, 0.177959, 0.025962, 0.00124201, -0.0118411, 0.0026865, 7.1066e-05, 0.208093, -0.041035, -0.000550084, -5.5282, -0.97955, -0.0259111, -0.0695983, 0.0994941, 0.0473669, -0.0590518, -0.0309373, -0.0215001, 0, 0, 0, 19.1325, -0.0590518, -0.0309373, -0.0215001, 4.78433, 4.67622, 4.62328, 5.04867, 0.367112, 0.361209, 0.358297, 0.381302, -0.277691, 0.140529, 0.047917, 
[2024-07-23 13:58:19.123617] [0x0000007f8defc9a0] [LogDataTag] [0x00003de4] [3274] , 10.1216, 1382, 0, 0, 0, 0, 0.354698, 0.357279, 0.00470543, 0.00470543, 0.00470897, 0.00471108, 0, 0, -0.0435557, -0.0433814, 1.07378e-10, 5.50417e-09, 0, 0, 0, 0, 2.32485e-05, -0.000766659, -1.33961e-05, -0.000129893, 0.00194649, 0.00337109, 0.00284525, 0, 0, -2.10093e-05, 0, 0, -0.000845177, 0, 0, -0.0227967, 0, 0, -2.77994e-05, 0, 0, -0.000897117, 0, 0, -0.0214322, -0.000766659, -1.33961e-05, -0.000108884, 0.00194649, 0.00337109, 0.00369042, -2.52146e-05, -1.49861e-06, 9.45346e-06, 0, 0, 6.79007e-06, 0, 0, 1.80247e-07, 0, 0, -0.0727194, -0.00834532, -0.0619294, -19.2629, 0, 0, 0, -0.0207124, 0.457606, -19.2576, 0.0237579, 0.00107554, 0, -0.0368908, -0.054772, 0, -0.0269728, -0.000641579, 0.000135303, -0.0269728, -0.000641579, 0.000135303, -6.33249e-05, 1.55171, 6.33249e-05, -0.195219, -0.00786435, -0.0286452, -0.0507307, -0.00171712, 0.000135303, -0.00610977, 0.000150092, 6.41399e-06, -0.158328, 0.0469076, -0.0286452, -0.0323037, -0.054598, -0.00147578, 0.185114, 0.0037675, 0.000666581, -0.0100615, 0.00294611, 8.34861e-05, 0.152811, -0.0508305, -0.000809196, -5.30785, -0.473819, -0.0230125, -0.195237, -0.00708895, -0.0288468, -0.0415872, -0.0123335, 0.0134545, -0, -0, -0, 19.263, -0.0415872, -0.0123335, 0.0134545, 4.91114, 4.78652, 4.65713, 4.90823, 0.373962, 0.367231, 0.360161, 0.373805, -0.348048, 0.0437416, -0.0280376, 
[2024-07-23 13:58:19.133697] [0x0000007f8defc9a0] [LogDataTag] [0x00003de4] [3278] , 10.1316, 1434, 0, 0, -0.446443, -0.453377, 0.35481, 1.89507, -0.788729, -0.775469, 0.00470905, 0.0047211, -0.3, -0.3, -0.0435482, 0.166208, -2.99606e-07, -1.36424e-08, 0, 0, 0, 0, 0.000179858, -0.000894597, -1.45286e-05, -0.000270486, -0.00765416, 0.0039381, -0.0102841, 0, 0, -2.94611e-05, 0, 0, -0.00107314, 0, 0, -0.0263836, 0, 0, -3.78843e-05, 0, 0, -0.00112799, 0, 0, -0.0248345, -0.000894597, -1.45286e-05, -0.000241025, -0.00765416, 0.0039381, -0.009211, -3.28811e-05, -1.63257e-06, 8.36462e-06, 0, 0, 8.42324e-06, 0, 0, 2.48148e-07, 0, 0, -0.0878038, 0.174197, -0.0723908, -18.9439, 0, 0, 0, 0.163745, 0.422027, -18.9394, 0.0222785, -0.00864551, 0, -0.106824, 0.0538693, 0, -0.0261028, -0.000550865, 0.000236875, -0.0261028, -0.000550865, 0.000236875, -0.000114843, 1.55234, 0.000114843, 0.184879, 0.0254332, 0.0237445, -0.0483814, 0.00809464, 0.000236875, -0.00661707, 0.000132921, 7.76701e-06, 0.291703, -0.0284361, 0.0237445, -0.102446, 0.0531223, 0.00138216, 0.202178, -0.108691, -0.00242148, -0.00821037, 0.00298379, 9.01519e-05, 0.0997321, -0.0555687, -0.00103932, -4.63176, 1.21999, -0.00768728, 0.184892, 0.0248048, 0.0244002, -0.0841015, -0.00194127, -0.0118141, 0, 0, 0, 18.9448, -0.0841015, -0.00194127, -0.0118141, 4.89213, 4.52218, 4.57031, 4.96017, 0.37294, 0.352696, 0.355369, 0.376589, 0.0851603, 0.0803736, 0.0254395, 
[2024-07-23 13:58:19.143673] [0x0000007f8defc9a0] [LogDataTag] [0x00003de4] [3282] , 10.1416, 1412, 0, 0, -0.446443, -0.453377, 0.35481, 1.89507, -0.788729, -0.775469, 0.00470905, 0.0047211, -0.3, -0.3, -0.0435482, 0.166208, -2.99606e-07, -1.36424e-08, 0, 0, 0, 0, 0.000179858, -0.000894597, -1.45286e-05, -0.000270486, -0.00765416, 0.0039381, -0.0102841, 0, 0, -4.01925e-05, 0, 0, -0.00133698, 0, 0, -0.030205, 0, 0, -5.04806e-05, 0, 0, -0.00139455, 0, 0, -0.0284539, -0.000894597, -1.45286e-05, -0.000230293, -0.00765416, 0.0039381, -0.00894716, -4.18271e-05, -1.77786e-06, 5.95437e-06, 0, 0, 1.02881e-05, 0, 0, 3.32381e-07, 0, 0, -0.104777, 0.174229, -0.0723902, -18.9585, 0, 0, 0, 0.163768, 0.42241, -18.954, 0.0222815, -0.00864006, 0, -0.144172, -0.0624844, 0, -0.0261028, -0.000550865, 0.000236875, -0.0261028, -0.000550865, 0.000236875, -0.000114843, 1.55234, 0.000114843, 0.184879, 0.0254332, 0.0237445, -0.0483843, 0.00808919, 0.000236875, -0.00710089, 0.000213867, 1.01358e-05, 0.329051, 0.0879176, 0.0237445, -0.139793, -0.0631915, -0.00165467, 0.193207, 0.0198227, 0.000538479, -0.00618859, 0.00189688, 6.59371e-05, 0.0534145, -0.0433688, -0.00111619, -3.52456, -0.0138138, 0.0159678, 0.184892, 0.0248048, 0.0244002, -0.0588323, -0.00710138, -0.0117679, 0, 0, 0, 18.9594, -0.0588323, -0.00710138, -0.0117679, 4.82561, 4.59626, 4.6177, 4.91988, 0.36935, 0.356805, 0.357989, 0.374431, 0.131478, 0.0681737, 0.0255164, 
[2024-07-23 13:58:19.153629] [0x0000007f8defc9a0] [LogDataTag] [0x00003de4] [3288] , 10.1516, 1434, 0, 0, 0, 0.355124, -0.452338, -0.450443, 0.00470543, 0.00470928, -0.777459, -0.781085, 0, -0.043527, -0.3, -0.3, -1.15491e-07, -7.85075e-08, 0, 0, 0, 0, 0.000215569, -0.00101065, -6.11395e-05, -0.000424013, 0.00227825, -0.0139959, -0.00380694, 0, 0, -5.35623e-05, 0, 0, -0.00163903, 0, 0, -0.0342027, 0, 0, -6.58821e-05, 0, 0, -0.00169745, 0, 0, -0.0322634, -0.00101065, -6.11395e-05, -0.00037045, 0.00227825, -0.0139959, -0.00216791, -5.07731e-05, -1.92314e-06, 3.65144e-06, 0, 0, 1.23198e-05, 0, 0, 4.35262e-07, 0, 0, -0.123655, -0.00560805, 0.26179, -19.1234, 0, 0, 0, -0.0241029, 0.765772, -19.1098, 0.0400507, 0.00126128, 0, -0.13749, -0.103595, 0, -0.0263622, -0.000958538, -0.000627597, -0.0263622, -0.000958538, -0.000627597, 0.000320116, 1.55214, -0.000320116, 0.0374357, -0.128045, -0.13104, -0.0664129, -0.00221982, -0.000627597, -0.00758473, 0.000294759, 1.25045e-05, 0.174926, -0.02445, -0.13104, -0.131486, -0.103361, -0.002713, 0.149655, 0.059854, 0.00175649, -0.00425652, 0.00209511, 7.13219e-05, 0.0181689, -0.043507, -0.000956516, -2.20374, 0.104586, 0.0246624, 0.0373101, -0.124547, -0.13437, 0.000266783, 0.0193919, 0.0633776, 0, 0, 0, 19.1252, 0.000266783, 0.0193919, 0.0633776, 4.98621, 4.88798, 4.67582, 4.57518, 0.37798, 0.372716, 0.361187, 0.355639, 0.0191412, -0.0810398, -0.133413, 
[2024-07-23 13:58:19.163618] [0x0000007f8defc9a0] [LogDataTag] [0x00003de4] [3292] , 10.1616, 1427, 0, 0, 0, 0.355124, -0.452338, -0.450443, 0.00470543, 0.00470928, -0.777459, -0.781085, 0, -0.043527, -0.3, -0.3, -1.15491e-07, -7.85075e-08, 0, 0, 0, 0, 0.000215569, -0.00101065, -6.11395e-05, -0.000424013, 0.00227825, -0.0139959, -0.00380694, 0, 0, -6.99526e-05, 0, 0, -0.00198106, 0, 0, -0.0384316, 0, 0, -8.45669e-05, 0, 0, -0.00204052, 0, 0, -0.0362783, -0.00101065, -6.11395e-05, -0.00035406, 0.00227825, -0.0139959, -0.00182588, -6.08796e-05, -2.53454e-06, -5.30614e-08, 0, 0, 1.46143e-05, 0, 0, 5.5846e-07, 0, 0, -0.144661, -0.00557257, 0.261792, -19.1411, 0, 0, 0, -0.0240844, 0.766242, -19.1276, 0.0400381, 0.00125914, 0, 0.171755, 0.0533125, 0, -0.0263622, -0.000958538, -0.000627597, -0.0263622, -0.000958538, -0.000627597, 0.000320116, 1.55214, -0.000320116, 0.0374357, -0.128045, -0.13104, -0.0664003, -0.00221768, -0.000627597, -0.00824886, 0.000272561, 6.22855e-06, -0.134319, -0.181358, -0.13104, 0.17776, 0.0534922, 0.00142301, -0.181629, -0.0959533, -0.0021329, -0.00275997, 0.00269365, 8.88868e-05, -0.00386844, -0.0424611, -0.000709892, 2.34588, 1.78841, 0.0216595, 0.0373101, -0.124547, -0.13437, 0.065013, 0.0308601, 0.0634921, 0, 0, 0, 19.1429, 0.065013, 0.0308601, 0.0634921, 4.87409, 5.00953, 4.85562, 4.4037, 0.371969, 0.379222, 0.370972, 0.346063, 0.0411786, -0.0820857, -0.13366, 
[2024-07-23 13:58:19.173634] [0x0000007f8defc9a0] [LogDataTag] [0x00003de4] [3296] , 10.1716, 1393, 0, 0, -4.81501, -0.462889, 0.00159918, 0.00323968, -0.794751, -0.757204, 0.00470547, 0.0047056, -0.3, -0.3, 2.19745e-05, 4.45167e-05, -1.47054e-06, 1.96451e-06, 0, 0, 0, 0, 0.00092079, -0.000924472, -0.0001394, -0.000465289, -0.0183651, 0.00011477, -0.0241557, 0, 0, -8.97632e-05, 0, 0, -0.00236537, 0, 0, -0.0428415, 0, 0, -0.00010688, 0, 0, -0.00242454, 0, 0, -0.0404763, -0.000924472, -0.0001394, -0.000375526, -0.0183651, 0.00011477, -0.0217904, -7.09862e-05, -3.14593e-06, -3.59366e-06, 0, 0, 1.71168e-05, 0, 0, 7.04603e-07, 0, 0, -0.16783, 0.373886, 0.00343127, -18.6576, 0, 0, 0, 0.365473, 0.502174, -18.651, 0.0269131, -0.0195929, 0, 0.280141, 0.113788, 0, -0.0267377, -0.00045093, 0.000167411, -0.0267377, -0.00045093, 0.000167411, -8.06912e-05, 1.55189, 8.06912e-05, 0.261241, 0.15363, 0.0671342, -0.0536508, 0.0191419, 0.000167411, -0.00891286, 0.000250384, -4.74241e-08, -0.0189005, 0.0398418, 0.0671342, 0.285001, 0.112024, 0.00299263, -0.26541, -0.136601, -0.00348593, -0.00457625, 0.00173411, 6.75578e-05, 0.0195904, -0.024577, -0.000493297, 3.73771, 1.79777, -0.0194385, 0.261271, 0.15178, 0.0712174, 0.0517098, -0.00800424, -0.0326296, 0, 0, 0, 18.6613, 0.0517098, -0.00800424, -0.0326296, 4.44781, 4.72244, 4.84182, 4.64928, 0.348541, 0.36374, 0.370227, 0.359729, 0.24168, 0.176357, 0.0717107, 
[2024-07-23 13:58:19.183676] [0x0000007f8defc9a0] [LogDataTag] [0x00003de4] [3300] , 10.1816, 1413, 0, 0, 8.59366, 8.6687, -4.8189, -0.449369, -0.693573, -0.723463, -0.795351, -0.78314, -0.3, -0.3, -0.3, -0.3, -2.32448e-05, 2.19502e-05, 0, 0, 0, 0, 0.00203909, -0.00104435, -0.00014548, -0.00058192, 0.0328743, -0.0267154, 0.0156416, 0, 0, -0.000113417, 0, 0, -0.00279379, 0, 0, -0.0474176, 0, 0, -0.000133226, 0, 0, -0.00285108, 0, 0, -0.0448476, -0.00104435, -0.00014548, -0.000468503, 0.0328743, -0.0267154, 0.0184354, -8.02309e-05, -4.53994e-06, -7.34892e-06, 0, 0, 1.98092e-05, 0, 0, 8.75771e-07, 0, 0, -0.193259, -0.571247, 0.500852, -19.6488, 0, 0, 0, -0.600594, 1.03952, -19.6268, 0.0528901, 0.0305911, 0, 0.0730078, -0.211441, 0, -0.0274351, -0.00148822, -0.000210758, -0.0274351, -0.00148822, -0.000210758, 0.000115587, 1.55135, -0.000115587, -0.298343, -0.108765, 0.0184544, -0.0803252, -0.0320794, -0.000210758, -0.00944937, 0.000441804, 1.62669e-06, -0.371351, 0.102676, 0.0184544, 0.0802702, -0.208477, -0.00571683, -0.0233026, 0.201878, 0.00502915, -0.00723036, 0.000368102, 3.26985e-05, 0.0569676, -0.00659936, -0.000687682, 2.18421, -2.06514, -0.0628743, -0.298316, -0.109231, 0.0154639, 0.162561, 0.00904574, -0.00866647, 0, 0, 0, 19.6635, 0.162561, 0.00904574, -0.00866647, 4.5506, 5.23854, 5.32753, 4.54683, 0.354276, 0.39129, 0.395915, 0.354066, -0.355284, -0.102631, 0.0161515, 
[2024-07-23 13:58:19.193875] [0x0000007f8defc9a0] [LogDataTag] [0x00003de4] [3305] , 10.1916, 1628, 0, 0, -0.457309, -0.454322, 0.00709518, 0.356952, -0.76793, -0.773659, 0.00470621, 0.00471078, -0.3, -0.3, 9.74954e-05, -0.0434035, -1.48334e-06, -2.47611e-07, 0, 0, 0, 0, 0.000961744, -0.000962952, -0.000189975, -0.000724047, -0.0233503, 0.00245056, -0.0202608, 0, 0, -0.000141355, 0, 0, -0.00326796, 0, 0, -0.0521433, 0, 0, -0.000164016, 0, 0, -0.00332155, 0, 0, -0.0493819, -0.000962952, -0.000189975, -0.000582693, -0.0233503, 0.00245056, -0.0169928, -9.06744e-05, -5.99474e-06, -1.20339e-05, 0, 0, 2.26614e-05, 0, 0, 1.07386e-06, 0, 0, -0.221037, 0.467721, -0.0378295, -18.7795, 0, 0, 0, 0.44396, 0.473968, -18.7742, 0.0252333, -0.023643, 0, 0.38582, 0.482232, 0, -0.0272621, -0.00126466, 0.000295921, -0.0272621, -0.00126466, 0.000295921, -0.000139341, 1.55148, 0.000139341, 0.165531, -0.0223331, -0.0471429, -0.0524954, 0.0223783, 0.000295921, -0.0102526, 0.00012101, -4.80891e-07, -0.220288, -0.504566, -0.0471429, 0.39058, 0.48004, 0.0130842, -0.31177, -0.50729, -0.0144006, -0.00746338, 0.00238688, 8.299e-05, 0.0788096, -0.0272507, -0.00131642, 6.56085, 6.78735, -0.0307175, 0.165472, -0.0210397, -0.0477342, 0.151648, 0.0540541, 0.0225102, 0, 0, 0, 18.7854, 0.151648, 0.0540541, 0.0225102, 4.54776, 4.95561, 5.12212, 4.15991, 0.354118, 0.376345, 0.385186, 0.332178, 0.0866621, 0.006211, -0.0464177, 
[2024-07-23 13:58:19.203646] [0x0000007f8defc9a0] [LogDataTag] [0x00003de4] [3309] , 10.2016, 1403, 0, 0, 0.472333, 0.466745, -0.445254, -0.450259, -0.738985, -0.749776, -0.790998, -0.781438, -0.3, -0.3, -0.3, -0.3, -2.15559e-06, -1.78938e-06, 0, 0, 0, 0, 0.00105524, -0.000988172, -0.000314429, -0.000843838, 0.0220239, -0.0233841, -0.00483428, 0, 0, -0.000174034, 0, 0, -0.0037894, 0, 0, -0.0570458, 0, 0, -0.000199775, 0, 0, -0.00383869, 0, 0, -0.0540822, -0.000988172, -0.000314429, -0.000669803, 0.0220239, -0.0233841, -0.00104489, -0.000100304, -7.89449e-06, -1.78609e-05, 0, 0, 2.57404e-05, 0, 0, 1.30048e-06, 0, 0, -0.251338, -0.37214, 0.445856, -19.1751, 0, 0, 0, -0.40676, 0.97553, -19.1548, 0.0508735, 0.0212323, 0, 0.0192182, -0.157454, 0, -0.027621, -0.00182406, 0.000797333, -0.027621, -0.00182406, 0.000797333, -0.00038607, 1.55119, 0.00038607, -0.207826, -0.0189081, 0.14604, -0.0784944, -0.0230563, 0.000797333, -0.0107776, 0.000344793, 2.47832e-06, -0.227044, 0.138546, 0.14604, 0.0263204, -0.15532, -0.00430716, 0.118098, 0.195943, 0.00268356, -0.0105811, -0.00268602, -6.10164e-05, 0.144418, 0.0406228, -0.0016236, 0.623732, -2.87597, -0.0550817, -0.207559, -0.0229341, 0.145461, 0.143662, -0.0149511, -0.0704793, 0, 0, 0, 19.1839, 0.143662, -0.0149511, -0.0704793, 4.25991, 4.98553, 5.25537, 4.68308, 0.337913, 0.377943, 0.392167, 0.361586, -0.351978, -0.0635568, 0.147085, 
[2024-07-23 13:58:19.213660] [0x0000007f8defc9a0] [LogDataTag] [0x00003de4] [3313] , 10.2116, 1404, 0, 0, -4.82009, -0.355999, -0.00673806, -0.354708, -0.795534, 0.00471612, 0.00470614, 0.00471456, -0.3, 0.0427673, -9.25881e-05, 0.0428544, -1.60102e-07, 5.64181e-07, 0, 0, 0, 0, 0.000575084, -0.000878301, -0.000329092, -0.00103992, -0.00703301, -0.00290064, -0.0227422, 0, 0, -0.000211928, 0, 0, -0.00435985, 0, 0, -0.0621141, 0, 0, -0.000240977, 0, 0, -0.00440407, 0, 0, -0.0589402, -0.000878301, -0.000329092, -0.000827994, -0.00703301, -0.00290064, -0.0183823, -0.000110186, -1.10388e-05, -2.45589e-05, 0, 0, 2.90482e-05, 0, 0, 1.55788e-06, 0, 0, -0.284272, 0.162371, 0.066884, -18.7481, 0, 0, 0, 0.120877, 0.592206, -18.7392, 0.0315914, -0.00645043, 0, 0.265081, 0.304281, 0, -0.0280315, -0.00221603, 0.000795306, -0.0280315, -0.00221603, 0.000795306, -0.000382122, 1.55086, 0.000382122, 0.112314, -0.0759399, -0.0606235, -0.0596229, 0.00423439, 0.000795306, -0.0115625, 0.00011423, 1.04517e-05, -0.152766, -0.38022, -0.0606235, 0.270487, 0.30378, 0.00850165, -0.119832, -0.291917, -0.0106761, -0.00940011, -0.000726593, -3.41808e-05, 0.150655, 0.011863, -0.00217442, 3.55546, 4.87845, 0.0269894, 0.11218, -0.0742109, -0.062728, 0.123928, 0.0621257, 0.0284062, 0, 0, 0, 18.7489, 0.123928, 0.0621257, 0.0284062, 4.63644, 4.87768, 5.05659, 4.17822, 0.359022, 0.372162, 0.381722, 0.333232, -0.0384753, -0.0860739, -0.0605536, 
[2024-07-23 13:58:19.223669] [0x0000007f8defc9a0] [LogDataTag] [0x00003de4] [3317] , 10.2216, 1402, 0, 0, 8.6571, 0.465784, -0.446916, -0.454096, -0.718837, -0.751629, -0.787827, -0.774092, -0.3, -0.3, -0.3, -0.3, -7.60753e-06, 2.78466e-06, 0, 0, 0, 0, 0.000946014, -0.000887377, -0.000475302, -0.00116777, 0.0190162, -0.0241557, -0.000950049, 0, 0, -0.000255527, 0, 0, -0.004981, 0, 0, -0.0673183, 0, 0, -0.00028806, 0, 0, -0.00501853, 0, 0, -0.0639426, -0.000887377, -0.000475302, -0.000912247, 0.0190162, -0.0241557, 0.00403095, -0.000118969, -1.43297e-05, -3.28388e-05, 0, 0, 3.25333e-05, 0, 0, 1.84836e-06, 0, 0, -0.31991, -0.319973, 0.466578, -19.3033, 0, 0, 0, -0.371315, 1.0127, -19.2815, 0.052464, 0.0192552, 0, 0.0223338, 0.0158357, 0, -0.0282874, -0.00268755, 0.00114707, -0.0282874, -0.00268755, 0.00114707, -0.000554527, 1.55062, 0.000554527, -0.190741, -0.0550039, 0.12859, -0.0807514, -0.0219427, 0.00114707, -0.0121588, 0.000156574, 1.84047e-05, -0.213075, -0.0708396, 0.12859, 0.029644, 0.0178035, 0.000480653, 0.156566, 0.0428439, -0.00238518, -0.0105984, -0.00364576, -0.000140941, 0.18621, 0.0606475, -0.00190452, -1.5933, -0.509465, 0.00575965, -0.190396, -0.0586189, 0.126982, 0.0885, 0.015231, -0.0627005, 0, 0, 0, 19.3116, 0.0885, 0.015231, -0.0627005, 4.51294, 4.83461, 5.22098, 4.7431, 0.352181, 0.369838, 0.390373, 0.364868, -0.376606, -0.119266, 0.128887, 
[2024-07-23 13:58:19.233643] [0x0000007f8defc9a0] [LogDataTag] [0x00003de4] [3322] , 10.2316, 1397, 0, 0, 0.468432, 0.456451, -0.460691, -0.456603, -0.746522, -0.769575, -0.761434, -0.769285, -0.3, -0.3, -0.3, -0.3, -3.81058e-06, -4.26775e-06, 0, 0, 0, 0, 0.00207379, -0.000730511, -0.000697806, -0.00159882, 0.0214067, -0.0387602, -0.0106388, 0, 0, -0.000305337, 0, 0, -0.00565418, 0, 0, -0.0726633, 0, 0, -0.000341556, 0, 0, -0.00568389, 0, 0, -0.0690854, -0.000730511, -0.000697806, -0.00129348, 0.0214067, -0.0387602, -0.00498462, -0.000127842, -1.90827e-05, -4.19613e-05, 0, 0, 3.62192e-05, 0, 0, 2.1737e-06, 0, 0, -0.358388, -0.369893, 0.746077, -19.0663, 0, 0, 0, -0.443269, 1.29948, -19.035, 0.0681438, 0.0232828, 0, 0.245914, 0.297676, 0, -0.0290247, -0.00389617, 0.00121526, -0.0290247, -0.00389617, 0.00121526, -0.000579358, 1.54991, 0.000579358, -0.115101, -0.0577066, 0.0193968, -0.0971686, -0.027179, 0.00121526, -0.0129663, -6.28534e-05, 2.98754e-05, -0.361014, -0.355383, 0.0193968, 0.254704, 0.299997, 0.00868521, -0.0844272, -0.244444, -0.0105321, -0.00903277, -0.00321733, -0.000164793, 0.170277, 0.0555528, -0.00184693, 0.789389, 3.68705, 0.07716, -0.115025, -0.0582452, 0.0177138, 0.105056, 0.0592441, -0.0105097, 0, 0, 0, 19.0844, 0.105056, 0.0592441, -0.0105097, 4.65989, 4.83066, 5.18612, 4.40777, 0.360312, 0.369624, 0.388549, 0.346292, -0.285302, -0.113798, 0.0195607, 
[2024-07-23 13:58:19.243855] [0x0000007f8defc9a0] [LogDataTag] [0x00003de4] [3327] , 10.2416, 1603, 0, 0, 0.448608, 0.446733, -0.454649, -0.447737, -0.784595, -0.788175, -0.773032, -0.786259, -0.3, -0.3, -0.3, -0.3, -5.83157e-06, -4.07105e-06, 0, 0, 0, 0, 0.00272841, -0.000482626, -0.00107782, -0.00179811, 0.0222529, -0.0347082, -0.0320711, 0, 0, -0.000361879, 0, 0, -0.00638081, 0, 0, -0.0780951, 0, 0, -0.000401848, 0, 0, -0.00639997, 0, 0, -0.0743501, -0.000482626, -0.00107782, -0.00143623, 0.0222529, -0.0347082, -0.0256903, -0.000135147, -2.60608e-05, -5.48962e-05, 0, 0, 3.99694e-05, 0, 0, 2.53589e-06, 0, 0, -0.399728, -0.394484, 0.686137, -18.5582, 0, 0, 0, -0.476366, 1.2533, -18.5266, 0.0675234, 0.0257069, 0, 0.55582, 0.4385, 0, -0.0305513, -0.00447377, 0.00165809, -0.0305513, -0.00447377, 0.00165809, -0.000794874, 1.54874, 0.000794874, -0.117805, -0.0226173, 0.0183126, -0.0980747, -0.0301806, 0.00165809, -0.013938, -0.000334644, 4.2028e-05, -0.673626, -0.461117, 0.0183126, 0.564696, 0.441013, 0.0134442, -0.386525, -0.348589, -0.0145195, -0.00987704, -0.00566176, -0.000270115, 0.178171, 0.0924233, -0.00107533, 3.20522, 4.22771, 0.0821076, -0.117723, -0.0231661, 0.017613, 0.115678, 0.0566306, -0.0104157, 0, 0, 0, 18.5751, 0.115678, 0.0566306, -0.0104157, 4.50209, 4.73424, 5.07584, 4.26291, 0.351576, 0.364385, 0.382742, 0.338084, -0.295894, -0.115589, 0.0186883, 
[2024-07-23 13:58:19.253644] [0x0000007f8defc9a0] [LogDataTag] [0x00003de4] [3331] , 10.2516, 1409, 0, 0, 0.453519, 0.449488, -0.461115, -0.446775, -0.775197, -0.782912, -0.760618, -0.788095, -0.3, -0.3, -0.3, -0.3, -7.79597e-06, -6.33926e-06, 0, 0, 0, 0, 0.00380391, -0.000260627, -0.00188963, -0.00238402, 0.0280084, -0.0456043, -0.0306543, 0, 0, -0.000425687, 0, 0, -0.00716176, 0, 0, -0.0836769, 0, 0, -0.000469644, 0, 0, -0.00717024, 0, 0, -0.079746, -0.000260627, -0.00188963, -0.00195834, 0.0280084, -0.0456043, -0.0234925, -0.000139974, -3.68389e-05, -6.92584e-05, 0, 0, 4.39575e-05, 0, 0, 2.93558e-06, 0, 0, -0.444169, -0.50912, 0.920388, -18.5876, 0, 0, 0, -0.616602, 1.51354, -18.5455, 0.0813874, 0.0332359, 0, 0.593321, 0.469087, 0, -0.0319171, -0.00583827, 0.00111691, -0.0319171, -0.00583827, 0.00111691, -0.000511867, 1.54749, 0.000511867, -0.298026, -0.0455603, -0.0132327, -0.113305, -0.0390742, 0.00111691, -0.0149187, -0.00063645, 5.8609e-05, -0.891346, -0.514647, -0.0132327, 0.60357, 0.472366, 0.0150589, -0.393347, -0.337665, -0.0153131, -0.0137423, -0.00914766, -0.00041531, 0.210223, 0.1347, -0.00025425, 3.59143, 4.61574, 0.189924, -0.298103, -0.0451149, -0.0146797, 0.167148, 0.0753137, 0.00522724, 0, 0, 0, 18.6173, 0.167148, 0.0753137, 0.00522724, 4.48276, 4.85161, 5.2121, 4.07087, 0.350497, 0.370756, 0.389909, 0.327024, -0.508326, -0.179815, -0.0144254, 
[2024-07-23 13:58:19.263644] [0x0000007f8defc9a0] [LogDataTag] [0x00003de4] [3336] , 10.2616, 1421, 0, 0, 0.453519, 0.449488, -0.461115, -0.446775, -0.775197, -0.782912, -0.760618, -0.788095, -0.3, -0.3, -0.3, -0.3, -7.79597e-06, -6.33926e-06, 0, 0, 0, 0, 0.00380391, -0.000260627, -0.00188963, -0.00238402, 0.0280084, -0.0456043, -0.0306543, 0, 0, -0.000497304, 0, 0, -0.00799853, 0, 0, -0.0893598, 0, 0, -0.000545376, 0, 0, -0.00799464, 0, 0, -0.085257, -0.000260627, -0.00188963, -0.00188672, 0.0280084, -0.0456043, -0.0226558, -0.00014258, -5.57353e-05, -8.88418e-05, 0, 0, 4.80714e-05, 0, 0, 3.37516e-06, 0, 0, -0.49175, -0.509111, 0.920454, -18.624, 0, 0, 0, -0.616806, 1.51477, -18.5818, 0.0812945, 0.0331818, 0, 0.736714, 0.527956, 0, -0.0319171, -0.00583827, 0.00111691, -0.0319171, -0.00583827, 0.00111691, -0.000511867, 1.54749, 0.000511867, -0.298026, -0.0455603, -0.0132327, -0.113212, -0.0390201, 0.00111691, -0.0160517, -0.00102719, 6.97781e-05, -1.03474, -0.573517, -0.0132327, 0.746959, 0.531202, 0.0169373, -0.500821, -0.350344, -0.0152923, -0.0176758, -0.0125243, -0.000568441, 0.246137, 0.180858, 0.00164499, 6.5727, 5.55834, 0.232718, -0.298103, -0.0451149, -0.0146797, 0.241198, 0.096499, 0.0053565, 0, 0, 0, 18.6537, 0.241198, 0.096499, 0.0053565, 4.37922, 4.97394, 5.44243, 3.85807, 0.344684, 0.377325, 0.401833, 0.314525, -0.54424, -0.225973, -0.0163247, 
[2024-07-23 13:58:19.273706] [0x0000007f8defc9a0] [LogDataTag] [0x00003de4] [3340] , 10.2716, 1452, 0, 0, 0.453519, 0.449488, -0.461115, -0.446775, -0.775197, -0.782912, -0.760618, -0.788095, -0.3, -0.3, -0.3, -0.3, -7.79597e-06, -6.33926e-06, 0, 0, 0, 0, 0.00380391, -0.000260627, -0.00188963, -0.00238402, 0.0280084, -0.0456043, -0.0306543, 0, 0, -0.00057729, 0, 0, -0.00889213, 0, 0, -0.0952083, 0, 0, -0.00062982, 0, 0, -0.0088767, 0, 0, -0.0908912, -0.000260627, -0.00188963, -0.00180673, 0.0280084, -0.0456043, -0.0217622, -0.000145186, -7.46316e-05, -0.000107709, 0, 0, 5.25303e-05, 0, 0, 3.85587e-06, 0, 0, -0.542721, -0.509102, 0.920521, -18.6627, 0, 0, 0, -0.617022, 1.51607, -18.6205, 0.081196, 0.0331246, 0, 0.680446, 0.46852, 0, -0.0319171, -0.00583827, 0.00111691, -0.0319171, -0.00583827, 0.00111691, -0.000511867, 1.54749, 0.000511867, -0.298026, -0.0455603, -0.0132327, -0.113113, -0.0389629, 0.00111691, -0.0171839, -0.00141739, 8.09472e-05, -0.978472, -0.514081, -0.0132327, 0.690687, 0.471792, 0.0150404, -0.378822, -0.235351, -0.0110682, -0.022684, -0.0160278, -0.000721364, 0.311864, 0.236441, 0.00397217, 6.38691, 4.55131, 0.218496, -0.298103, -0.0451149, -0.0146797, 0.272126, 0.0980482, 0.00541165, 0, 0, 0, 18.6923, 0.272126, 0.0980482, 0.00541165, 4.32313, 5.04962, 5.52578, 3.79376, 0.34151, 0.381353, 0.406091, 0.310695, -0.609967, -0.281556, -0.0186518, 
[2024-07-23 13:58:19.284031] [0x0000007f8defc9a0] [LogDataTag] [0x00003de4] [3345] , 10.2817, 1666, 0, 0, 1.89601, 0.360599, -0.457608, -0.458329, 0.00472083, 0.00471452, -0.767355, -0.765972, 0.166229, -0.0431572, -0.3, -0.3, -9.4734e-06, 3.91756e-07, 0, 0, 0, 0, 0.00454007, -0.000115305, -0.00223143, -0.00278875, 0.00962984, -0.056006, -0.0362031, 0, 0, -0.000666211, 0, 0, -0.00984421, 0, 0, -0.101167, 0, 0, -0.000723425, 0, 0, -0.00981613, 0, 0, -0.0966324, -0.000115305, -0.00223143, -0.00212254, 0.00962984, -0.056006, -0.0263589, -0.000147793, -9.35279e-05, -0.000125776, 0, 0, 5.72145e-05, 0, 0, 4.38118e-06, 0, 0, -0.597116, -0.17377, 1.12693, -18.5398, 0, 0, 0, -0.287507, 1.72914, -18.4919, 0.0932255, 0.0155465, 0, 0.545241, 0.36649, 0, -0.0325184, -0.00615858, 0.000388083, -0.0325184, -0.00615858, 0.000388083, -0.00014397, 1.54699, 0.00014397, 0.0321672, -0.0560996, -0.0862426, -0.125744, -0.021705, 0.000388083, -0.018315, -0.00180702, 9.21163e-05, -0.513073, -0.422589, -0.0862426, 0.556622, 0.368255, 0.0119708, -0.180888, -0.0863007, -0.00581366, -0.0264722, -0.0183813, -0.000832045, 0.375734, 0.281954, 0.00615713, 5.03276, 2.84235, 0.0605079, 0.0316361, -0.053266, -0.0880193, 0.24056, 0.084298, 0.0412309, 0, 0, 0, 18.5748, 0.24056, 0.084298, 0.0412309, 4.41786, 5.07226, 5.30181, 3.78289, 0.346859, 0.382552, 0.394581, 0.310045, -0.344097, -0.33522, -0.0941765, 
[2024-07-23 13:58:19.293932] [0x0000007f8defc9a0] [LogDataTag] [0x00003de4] [3350] , 10.2917, 1617, 0, 0, 0.446108, 0.446553, -0.461294, -0.453919, -0.789369, -0.788519, -0.760274, -0.774431, -0.3, -0.3, -0.3, -0.3, -1.15604e-05, -1.00948e-05, 0, 0, 0, 0, 0.00593825, 0.000272077, -0.00367312, -0.00399698, 0.0244308, -0.0625804, -0.0377502, 0, 0, -0.000764653, 0, 0, -0.0108559, 0, 0, -0.107121, 0, 0, -0.000826399, 0, 0, -0.0108104, 0, 0, -0.102453, 0.000272077, -0.00367312, -0.00323233, 0.0244308, -0.0625804, -0.0268943, -0.000148946, -0.000115842, -0.000147002, 0, 0, 6.17459e-05, 0, 0, 4.95332e-06, 0, 0, -0.654844, -0.461998, 1.30621, -18.4628, 0, 0, 0, -0.608687, 1.95874, -18.4007, 0.105992, 0.0330674, 0, 0.590984, -0.0182926, 0, -0.0354295, -0.00787149, -0.00105308, -0.0354295, -0.00787149, -0.00105308, 0.000596266, 1.54454, -0.000596266, -0.131588, 0.00700656, 0.00184366, -0.141422, -0.0409389, -0.00105308, -0.0195724, -0.00202407, 9.59972e-05, -0.722571, 0.0252991, 0.00184366, 0.60378, -0.0145925, -0.000496916, -0.177719, 0.32497, 0.00725912, -0.0282811, -0.0192443, -0.000890182, 0.426061, 0.310378, 0.00676221, 4.89676, -2.73543, 0.0250493, -0.131573, 0.00693685, 0.00209063, 0.278448, 0.0356232, 0.000783384, 0, 0, 0, 18.5147, 0.278448, 0.0356232, 0.000783384, 4.09303, 5.16817, 5.34698, 3.90651, 0.328311, 0.387608, 0.396921, 0.317393, -0.557634, -0.303441, -0.00467158, 
[2024-07-23 13:58:19.303898] [0x0000007f8defc9a0] [LogDataTag] [0x00003de4] [3354] , 10.3017, 1547, 0, 0, 4.86544, 4.86796, -0.451801, -4.81617, 0.00472398, 0.00472317, -0.778486, -0.79493, 0.165992, 0.166051, -0.3, -0.3, -3.14304e-05, 6.29524e-06, 0, 0, 0, 0, 0.0058696, 0.000490803, -0.00406151, -0.00448507, 0.019765, -0.0426649, -0.0604867, 0, 0, -0.000873212, 0, 0, -0.0119271, 0, 0, -0.113204, 0, 0, -0.000939752, 0, 0, -0.0118647, 0, 0, -0.108372, 0.000490803, -0.00406151, -0.00361186, 0.019765, -0.0426649, -0.0485596, -0.000146225, -0.000152573, -0.000179325, 0, 0, 6.65404e-05, 0, 0, 5.57078e-06, 0, 0, -0.716262, -0.383431, 0.952748, -17.9162, 0, 0, 0, -0.528374, 1.62542, -17.8641, 0.0906987, 0.0295689, 0, 0.720821, 0.0956657, 0, -0.0376414, -0.00798654, -0.00196105, -0.0376414, -0.00798654, -0.00196105, 0.00105569, 1.54302, -0.00105569, -0.153492, -0.0124048, -0.127928, -0.12834, -0.0375554, -0.00196105, -0.0209866, -0.00243346, 8.54664e-05, -0.874313, -0.108071, -0.127928, 0.732445, 0.0989826, 0.00376617, -0.257416, 0.184041, 0.00324653, -0.0300583, -0.0159946, -0.000817591, 0.475029, 0.283023, 0.0070127, 4.59856, -2.15825, 0.0134265, -0.154513, -0.0075819, -0.1283, 0.255114, 0.0252349, 0.063752, 0, 0, 0, 17.9456, 0.255114, 0.0252349, 0.063752, 4.13162, 5.15463, 4.97059, 3.68879, 0.330545, 0.386896, 0.377146, 0.30439, -0.629542, -0.290605, -0.135313, 
[2024-07-23 13:58:19.313836] [0x0000007f8defc9a0] [LogDataTag] [0x00003de4] [3359] , 10.3117, 1491, 0, 0, 0.450324, 0.445162, -0.460634, -0.460886, -0.781314, -0.791174, -0.761543, -0.761057, -0.3, -0.3, -0.3, -0.3, -1.26846e-05, -1.28603e-05, 0, 0, 0, 0, 0.00700276, 0.000609711, -0.00458054, -0.00497165, 0.0236935, -0.0730657, -0.0332082, 0, 0, -0.000992483, 0, 0, -0.0130591, 0, 0, -0.119411, 0, 0, -0.00106412, 0, 0, -0.0129802, 0, 0, -0.114384, 0.000609711, -0.00458054, -0.00397917, 0.0236935, -0.0730657, -0.0201491, -0.000141317, -0.000193188, -0.000215444, 0, 0, 7.16391e-05, 0, 0, 6.23618e-06, 0, 0, -0.781498, -0.460533, 1.53688, -18.6014, 0, 0, 0, -0.622068, 2.22541, -18.527, 0.119478, 0.0335637, 0, 0.417922, 0.0745236, 0, -0.0371504, -0.00848201, -0.00245767, -0.0371504, -0.00848201, -0.00245767, 0.00130762, 1.54321, -0.00130762, 0.0169676, -0.0695417, -0.0162621, -0.156628, -0.0420458, -0.00245767, -0.02227, -0.00280902, 6.58559e-05, -0.400955, -0.144065, -0.0162621, 0.432097, 0.0782617, 0.00295745, 0.0889173, 0.183179, 0.00418951, -0.0326324, -0.0141542, -0.000785125, 0.521014, 0.261441, 0.00714697, -0.735864, -4.43931, -0.0924269, 0.0168296, -0.0688897, -0.0188332, 0.163311, -0.0145332, 0.0107923, 0, 0, 0, 18.6705, 0.163311, -0.0145332, 0.0107923, 4.28804, 5.10027, 4.97269, 4.3095, 0.339516, 0.384033, 0.377258, 0.340736, -0.504185, -0.330331, -0.0259802, 
[2024-07-23 13:58:19.324029] [0x0000007f8defc9a0] [LogDataTag] [0x00003de4] [3363] , 10.3216, 1618, 0, 0, 0.444719, 0.446954, -0.456357, -0.462822, -0.792019, -0.787754, -0.769757, -0.757334, -0.3, -0.3, -0.3, -0.3, -1.45017e-05, -1.37379e-05, 0, 0, 0, 0, 0.00781286, 0.000912948, -0.00552244, -0.00598042, 0.0241324, -0.0757146, -0.0387013, 0, 0, -0.00112307, 0, 0, -0.0142532, 0, 0, -0.125488, 0, 0, -0.00119919, 0, 0, -0.0141497, 0, 0, -0.12044, 0.000912948, -0.00552244, -0.00485734, 0.0241324, -0.0757146, -0.024448, -0.00013522, -0.000238994, -0.000255235, 0, 0, 7.61164e-05, 0, 0, 6.95257e-06, 0, 0, -0.850197, -0.479617, 1.62361, -18.4478, 0, 0, 0, -0.639163, 2.30823, -18.3698, 0.124923, 0.0347801, 0, 0.678246, 0.117215, 0, -0.0372849, -0.00833212, -0.00360804, -0.0372849, -0.00833212, -0.00360804, 0.0018817, 1.54316, -0.0018817, 0.146963, 0.0354074, -0.0370591, -0.162208, -0.0431122, -0.00360804, -0.0238363, -0.00322947, 4.12792e-05, -0.531282, -0.081808, -0.0370591, 0.692928, 0.12102, 0.00458619, -0.179273, 0.0960278, 0.0016365, -0.0317433, -0.0123224, -0.00074323, 0.513656, 0.217048, 0.0062227, 2.0563, -4.12891, -0.131118, 0.146655, 0.0367642, -0.0357122, 0.173203, -0.0345804, 0.0219499, 0, 0, 0, 18.5253, 0.173203, -0.0345804, 0.0219499, 4.20543, 5.16514, 4.87991, 4.27483, 0.334795, 0.387449, 0.372282, 0.338764, -0.367001, -0.180284, -0.0419349, 
[2024-07-23 13:58:19.334067] [0x0000007f8defc9a0] [LogDataTag] [0x00003de4] [3367] , 10.3317, 1653, 0, 0, 0.444719, 0.446954, -0.456357, -0.462822, -0.792019, -0.787754, -0.769757, -0.757334, -0.3, -0.3, -0.3, -0.3, -1.45017e-05, -1.37379e-05, 0, 0, 0, 0, 0.00781286, 0.000912948, -0.00552244, -0.00598042, 0.0241324, -0.0757146, -0.0387013, 0, 0, -0.00126561, 0, 0, -0.0155081, 0, 0, -0.131873, 0, 0, -0.00134716, 0, 0, -0.0153876, 0, 0, -0.126606, 0.000912948, -0.00552244, -0.00471481, 0.0241324, -0.0757146, -0.0231931, -0.00012609, -0.000294218, -0.000303809, 0, 0, 8.15495e-05, 0, 0, 7.71374e-06, 0, 0, -0.923277, -0.479649, 1.6238, -18.5005, 0, 0, 0, -0.639634, 2.31039, -18.4225, 0.124686, 0.0347064, 0, 0.771399, 0.136707, 0, -0.0372849, -0.00833212, -0.00360804, -0.0372849, -0.00833212, -0.00360804, 0.0018817, 1.54316, -0.0018817, 0.146963, 0.0354074, -0.0370591, -0.161971, -0.0430385, -0.00360804, -0.0254584, -0.0036606, 5.19878e-06, -0.624435, -0.1013, -0.0370591, 0.786066, 0.140493, 0.00531288, -0.251847, 0.0352654, -0.000401361, -0.033536, -0.0113621, -0.000726865, 0.534219, 0.175759, 0.00491152, 1.50871, -3.27825, -0.125376, 0.146655, 0.0367642, -0.0357122, 0.143333, -0.0303288, 0.021896, 0, 0, 0, 18.5778, 0.143333, -0.0303288, 0.021896, 4.29678, 5.09976, 4.8366, 4.34465, 0.340013, 0.384006, 0.369945, 0.342729, -0.387564, -0.138995, -0.0406237, 
[2024-07-23 13:58:19.343718] [0x0000007f8defc9a0] [LogDataTag] [0x00003de4] [3372] , 10.3416, 1468, 0, 0, 4.84226, 0.445171, -0.455996, -0.46016, -0.798949, -0.791158, -0.77045, -0.762454, -0.3, -0.3, -0.3, -0.3, -3.83484e-05, -4.59472e-06, 0, 0, 0, 0, 0.00721359, 0.00119379, -0.00643061, -0.00706208, 0.0202758, -0.0708934, -0.0421498, 0, 0, -0.00142069, 0, 0, -0.0168268, 0, 0, -0.138146, 0, 0, -0.00150715, 0, 0, -0.0166822, 0, 0, -0.132812, 0.00119379, -0.00643061, -0.00564139, 0.0202758, -0.0708934, -0.0253229, -0.000116961, -0.000349443, -0.000350957, 0, 0, 8.64636e-05, 0, 0, 8.52923e-06, 0, 0, -1.00011, -0.41834, 1.5708, -18.3972, 0, 0, 0, -0.546873, 2.23815, -18.3246, 0.121484, 0.0298348, 0, 0.685159, 0.122231, 0, -0.036453, -0.00658845, -0.00467216, -0.036453, -0.00658845, -0.00467216, 0.00239613, 1.54421, -0.00239613, 0.116368, 0.0785814, -0.0871761, -0.157937, -0.0364233, -0.00467216, -0.0270781, -0.00409098, -3.08816e-05, -0.568791, -0.0436498, -0.0871761, 0.699468, 0.125437, 0.00466833, -0.150162, 0.0175395, -0.00101057, -0.0360544, -0.0110094, -0.000730879, 0.549306, 0.142976, 0.00365776, 0.583524, -2.10461, -0.0796587, 0.115793, 0.0817062, -0.0842524, 0.141579, -0.0194307, 0.0469758, 0, 0, 0, 18.4689, 0.141579, -0.0194307, 0.0469758, 4.36311, 5.10228, 4.77169, 4.23179, 0.343773, 0.384139, 0.366425, 0.336306, -0.433512, -0.0612701, -0.0879101, 
[2024-07-23 13:58:19.353703] [0x0000007f8defc9a0] [LogDataTag] [0x00003de4] [3376] , 10.3517, 1451, 0, 0, 4.84226, 0.445171, -0.455996, -0.46016, -0.798949, -0.791158, -0.77045, -0.762454, -0.3, -0.3, -0.3, -0.3, -3.83484e-05, -4.59472e-06, 0, 0, 0, 0, 0.00721359, 0.00119379, -0.00643061, -0.00706208, 0.0202758, -0.0708934, -0.0421498, 0, 0, -0.00158896, 0, 0, -0.0182083, 0, 0, -0.14463, 0, 0, -0.00168103, 0, 0, -0.0180441, 0, 0, -0.1391, 0.00119379, -0.00643061, -0.00547312, 0.0202758, -0.0708934, -0.0239415, -0.000105023, -0.000413749, -0.000407371, 0, 0, 9.20758e-05, 0, 0, 9.39387e-06, 0, 0, -1.0814, -0.418382, 1.57102, -18.4549, 0, 0, 0, -0.547297, 2.24048, -18.3822, 0.121231, 0.0297643, 0, 0.486353, 0.0183595, 0, -0.036453, -0.00658845, -0.00467216, -0.036453, -0.00658845, -0.00467216, 0.00239613, 1.54421, -0.00239613, 0.116368, 0.0785814, -0.0871761, -0.157684, -0.0363528, -0.00467216, -0.0286575, -0.00445521, -7.76032e-05, -0.369985, 0.0602219, -0.0871761, 0.500645, 0.021629, 0.000882918, 0.0544957, 0.100301, 0.00197825, -0.0375561, -0.010834, -0.000740985, 0.555141, 0.12193, 0.00286117, -0.997068, -1.83451, -0.0274664, 0.115793, 0.0817062, -0.0842524, 0.138314, -0.00462919, 0.0469681, 0, 0, 0, 18.5264, 0.138314, -0.00462919, 0.0469681, 4.42278, 5.07131, 4.81666, 4.2156, 0.347136, 0.382502, 0.368866, 0.335379, -0.439348, -0.040224, -0.0871135, 
[2024-07-23 13:58:19.363639] [0x0000007f8defc9a0] [LogDataTag] [0x00003de4] [3380] , 10.3616, 1397, 0, 0, 0.000533115, 0.000844954, -0.448112, -0.449336, 0.00470544, 0.00470545, -0.785543, -0.783202, 7.32556e-06, 1.16106e-05, -0.3, -0.3, -2.55748e-06, -1.64785e-06, 0, 0, 0, 0, 0.00549032, 0.00138769, -0.00730793, -0.00838351, 0.000253218, -0.0458022, -0.0582444, 0, 0, -0.00177104, 0, 0, -0.0196546, 0, 0, -0.150931, 0, 0, -0.0018679, 0, 0, -0.0194619, 0, 0, -0.145409, 0.00138769, -0.00730793, -0.00661247, 0.000253218, -0.0458022, -0.0385898, -9.3085e-05, -0.000478055, -0.000462102, 0, 0, 9.68576e-05, 0, 0, 1.03146e-05, 0, 0, -1.16656, -0.054387, 1.14121, -18.0295, 0, 0, 0, -0.110361, 1.75393, -17.98, 0.0972395, 0.00613792, 0, 0.317026, -0.0314097, 0, -0.0340457, -0.00275613, -0.00550605, -0.0340457, -0.00275613, -0.00550605, 0.00277649, 1.54657, -0.00277649, 0.0253696, 0.134823, -0.116552, -0.131285, -0.00889404, -0.00550605, -0.0302343, -0.00481874, -0.000124325, -0.291656, 0.166233, -0.116552, 0.328948, -0.0305784, -0.000930284, 0.216223, 0.134163, 0.00351679, -0.0370111, -0.00983103, -0.000721202, 0.54517, 0.103585, 0.00258651, -2.50304, -1.1934, 0.0105453, 0.0250483, 0.138712, -0.111895, 0.124242, -0.00454151, 0.0619736, 0, 0, 0, 18.0657, 0.124242, -0.00454151, 0.0619736, 4.3765, 4.96102, 4.63304, 4.0951, 0.34453, 0.376634, 0.358835, 0.328432, -0.520122, 0.0351272, -0.114481, 
[2024-07-23 13:58:19.373634] [0x0000007f8defc9a0] [LogDataTag] [0x00003de4] [3385] , 10.3716, 1397, 0, 0, 0.000533115, 0.000844954, -0.448112, -0.449336, 0.00470544, 0.00470545, -0.785543, -0.783202, 7.32556e-06, 1.16106e-05, -0.3, -0.3, -2.55748e-06, -1.64785e-06, 0, 0, 0, 0, 0.00549032, 0.00138769, -0.00730793, -0.00838351, 0.000253218, -0.0458022, -0.0582444, 0, 0, -0.00196759, 0, 0, -0.0211639, 0, 0, -0.157544, 0, 0, -0.00207037, 0, 0, -0.0209513, 0, 0, -0.151802, 0.00138769, -0.00730793, -0.00641593, 0.000253218, -0.0458022, -0.0370805, -7.92081e-05, -0.000551134, -0.000528227, 0, 0, 0.000102787, 0, 0, 1.12832e-05, 0, 0, -1.25659, -0.0544357, 1.14146, -18.0924, 0, 0, 0, -0.110585, 1.75633, -18.0429, 0.0970343, 0.00612891, 0, -0.192072, -0.426305, 0, -0.0340457, -0.00275613, -0.00550605, -0.0340457, -0.00275613, -0.00550605, 0.00277649, 1.54657, -0.00277649, 0.0253696, 0.134823, -0.116552, -0.13108, -0.00888504, -0.00550605, -0.0315472, -0.00490768, -0.000179385, 0.217441, 0.561128, -0.116552, -0.180164, -0.425246, -0.0143717, 0.700304, 0.516897, 0.0170637, -0.0348489, -0.00848939, -0.000686034, 0.52014, 0.0916511, 0.00269196, -8.78704, -5.526, 0.00233037, 0.0250483, 0.138712, -0.111895, 0.0321189, -0.0374949, 0.0618145, 0, 0, 0, 18.1285, 0.0321189, -0.0374949, 0.0618145, 4.5154, 4.85275, 4.35658, 4.40376, 0.352318, 0.370818, 0.343405, 0.346066, -0.495092, 0.0470612, -0.114587, 
[2024-07-23 13:58:19.383781] [0x0000007f8defc9a0] [LogDataTag] [0x00003de4] [3389] , 10.3816, 1492, 0, 0, 0.00628282, 0.35935, -4.81066, -0.474906, 0.00470605, 0.00471313, -0.79408, -0.734007, 8.63327e-05, -0.0432415, -0.3, -0.3, -4.47032e-06, -1.24817e-05, 0, 0, 0, 0, 0.00684915, 0.00146848, -0.00777479, -0.00890878, 0.00486941, -0.0588149, -0.0580193, 0, 0, -0.00217922, 0, 0, -0.0227394, 0, 0, -0.164058, 0, 0, -0.00228752, 0, 0, -0.022501, 0, 0, -0.158221, 0.00146848, -0.00777479, -0.00672955, 0.00486941, -0.0588149, -0.03528, -6.53311e-05, -0.000624214, -0.000592386, 0, 0, 0.000108299, 0, 0, 1.23111e-05, 0, 0, -1.35089, -0.142936, 1.40143, -18.1277, 0, 0, 0, -0.14948, 1.9624, -18.0756, 0.108139, 0.00826954, 0, -0.388626, -0.531994, 0, -0.0310315, 6.00965e-05, -0.00544814, -0.0310315, 6.00965e-05, -0.00544814, 0.00272361, 1.59274, -0.00272361, 0.514798, 0.34682, 0.0188537, -0.13917, -0.00820944, -0.00544814, -0.032858, -0.00499653, -0.000234446, 0.903424, 0.878814, 0.0188537, -0.375986, -0.530986, -0.0163717, 0.808255, 0.567377, 0.019087, -0.0278459, -0.00332043, -0.000515397, 0.432269, 0.036391, 0.00271527, -11.0095, -6.31497, 0.250616, 0.514797, 0.346068, 0.0296052, -0.0956084, -0.0719115, -0.0051719, 0, 0, 0, 18.1824, -0.0956084, -0.0719115, -0.0051719, 4.56446, 4.50132, 4.158, 4.95863, 0.355044, 0.351533, 0.332068, 0.376506, 0.0825273, 0.309677, 0.0268899, 
[2024-07-23 13:58:19.393661] [0x0000007f8defc9a0] [LogDataTag] [0x00003de4] [3393] , 10.3916, 1422, 0, 0, 0.36144, 4.81481, -0.44837, -0.459612, 0.00471552, -0.79472, -0.785049, -0.763506, -0.0431004, -0.3, -0.3, -0.3, -2.32275e-05, -1.13016e-07, 0, 0, 0, 0, 0.00527489, 0.00149432, -0.00816377, -0.0094783, 0.0148575, -0.0524524, -0.0479884, 0, 0, -0.00240662, 0, 0, -0.0243799, 0, 0, -0.170563, 0, 0, -0.0025203, 0, 0, -0.0241138, 0, 0, -0.164671, 0.00149432, -0.00816377, -0.00707168, 0.0148575, -0.0524524, -0.0236085, -5.06463e-05, -0.000701962, -0.000659682, 0, 0, 0.000113686, 0, 0, 1.33941e-05, 0, 0, -1.44972, -0.329003, 1.29928, -18.4037, 0, 0, 0, -0.307581, 1.82826, -18.359, 0.0992424, 0.0167521, 0, -0.235256, -0.459128, 0, -0.0288876, 0.00160007, -0.00618193, -0.0288876, 0.00160007, -0.00618193, 0.00307941, 1.59129, -0.00307941, 0.203267, 0.174831, -0.0464809, -0.12813, -0.015152, -0.00618193, -0.0342497, -0.00507863, -0.000288927, 0.438523, 0.63396, -0.0464809, -0.223605, -0.45756, -0.0130955, 0.545779, 0.430801, 0.0183169, -0.0197633, 0.00235334, -0.000324528, 0.322174, -0.0267586, 0.00522142, -10.0681, -6.38393, 0.0224808, 0.203341, 0.176101, -0.0414117, -0.100003, -0.0792171, 0.0284714, 0, 0, 0, 18.4524, -0.100003, -0.0792171, 0.0284714, 4.70585, 4.66033, 4.11415, 4.97208, 0.362833, 0.360336, 0.329535, 0.377226, -0.118833, 0.20286, -0.0466331, 
[2024-07-23 13:58:19.403704] [0x0000007f8defc9a0] [LogDataTag] [0x00003de4] [3398] , 10.4016, 1445, 0, 0, -0.0138068, -4.8372, -0.357899, -0.474464, 0.00470839, -0.79817, 0.00471865, -0.734862, 0.0433093, -0.3, 0.0426392, -0.3, 6.47991e-06, 9.66002e-07, 0, 0, 0, 0, 0.00515408, 0.00159268, -0.00856115, -0.00997259, -0.0122358, -0.0350754, -0.0614335, 0, 0, -0.00265042, 0, 0, -0.0260856, 0, 0, -0.17715, 0, 0, -0.00276978, 0, 0, -0.0257929, 0, 0, -0.171159, 0.00159268, -0.00856115, -0.00732217, -0.0122358, -0.0350754, -0.035348, -3.57031e-05, -0.000783599, -0.000730398, 0, 0, 0.000119366, 0, 0, 1.45309e-05, 0, 0, -1.55337, 0.16945, 0.993375, -18.1106, 0, 0, 0, 0.257687, 1.43564, -18.0799, 0.0792311, -0.0142517, 0, -0.272477, -0.217886, 0, -0.0243823, 0.00521869, -0.00631243, -0.0243823, 0.00521869, -0.00631243, 0.0031244, 1.58881, -0.0031244, 0.573857, 0.337798, -0.0939603, -0.103613, 0.0194704, -0.00631243, -0.035531, -0.00523015, -0.000350747, 0.846333, 0.555684, -0.0939603, -0.263028, -0.219558, -0.00522529, 0.484522, 0.12896, 0.0106715, -0.0143055, 0.00666135, -0.000141359, 0.221494, -0.0905979, 0.00544623, -10.9237, -4.16495, 0.0429039, 0.574347, 0.339988, -0.0856956, -0.225862, -0.111894, 0.049291, 0, 0, 0, 18.1386, -0.225862, -0.111894, 0.049291, 4.87907, 4.43256, 3.61647, 5.21049, 0.372237, 0.347686, 0.300007, 0.389825, 0.352853, 0.430586, -0.0911418, 
[2024-07-23 13:58:19.413715] [0x0000007f8defc9a0] [LogDataTag] [0x00003de4] [3403] , 10.4116, 1528, 0, 0, 4.82895, 0.465071, -0.444467, -0.466175, -0.7969, -0.753003, -0.792501, -0.750875, -0.3, -0.3, -0.3, -0.3, -2.96399e-05, -7.47654e-07, 0, 0, 0, 0, 0.00571616, 0.00176182, -0.00959967, -0.0114118, 0.0275946, -0.0586788, -0.038878, 0, 0, -0.00291127, 0, 0, -0.0278571, 0, 0, -0.183679, 0, 0, -0.003036, 0, 0, -0.0275346, 0, 0, -0.177663, 0.00176182, -0.00959967, -0.00850048, 0.0275946, -0.0586788, -0.0110209, -1.97763e-05, -0.000869211, -0.00080362, 0, 0, 0.000124731, 0, 0, 1.57246e-05, 0, 0, -1.6617, -0.574777, 1.47238, -18.6408, 0, 0, 0, -0.336904, 1.70333, -18.6269, 0.0911761, 0.018085, 0, -0.565439, -0.572939, 0, -0.0125588, 0.0131826, -0.00537462, -0.0125588, 0.0131826, -0.00537462, 0.00264592, 1.58671, -0.00264592, 0.544979, 0.283067, 0.196085, -0.103735, -0.00490234, -0.00537462, -0.0365671, -0.00503544, -0.000413871, 1.11042, 0.856006, 0.196085, -0.555976, -0.572436, -0.00707867, 0.668234, 0.440189, 0.0129539, -0.00946029, 0.00795095, -3.46435e-05, 0.112257, -0.132247, 0.00587527, -12.4834, -8.07087, 0.247232, 0.542394, 0.280582, 0.199607, -0.244674, -0.136002, -0.0899351, 0, 0, 0, 18.7077, -0.244674, -0.136002, -0.0899351, 4.65977, 4.25191, 3.99669, 5.79931, 0.360306, 0.337456, 0.322697, 0.419862, 0.430137, 0.41283, 0.193732, 
[2024-07-23 13:58:19.423625] [0x0000007f8defc9a0] [LogDataTag] [0x00003de4] [3407] , 10.4216, 1406, 0, 0, 4.82895, 0.465071, -0.444467, -0.466175, -0.7969, -0.753003, -0.792501, -0.750875, -0.3, -0.3, -0.3, -0.3, -2.96399e-05, -7.47654e-07, 0, 0, 0, 0, 0.00571616, 0.00176182, -0.00959967, -0.0114118, 0.0275946, -0.0586788, -0.038878, 0, 0, -0.00318984, 0, 0, -0.0296939, 0, 0, -0.190368, 0, 0, -0.00332066, 0, 0, -0.0293459, 0, 0, -0.184202, 0.00176182, -0.00959967, -0.00822191, 0.0275946, -0.0586788, -0.00918414, -2.15808e-06, -0.000965207, -0.000888625, 0, 0, 0.000130814, 0, 0, 1.69719e-05, 0, 0, -1.77522, -0.574839, 1.47272, -18.7174, 0, 0, 0, -0.335958, 1.70463, -18.7035, 0.0908738, 0.0179604, 0, -0.412752, -0.120105, 0, -0.0125588, 0.0131826, -0.00537462, -0.0125588, 0.0131826, -0.00537462, 0.00264592, 1.58671, -0.00264592, 0.544979, 0.283067, 0.196085, -0.103433, -0.00477774, -0.00537462, -0.0376045, -0.00508447, -0.000467617, 0.957731, 0.403171, 0.196085, -0.403313, -0.119649, -0.00139149, 0.390737, -0.0933074, 0.00973908, -0.00277796, 0.0123528, 9.48959e-05, -0.0125768, -0.212956, 0.00834759, -7.6867, -0.15152, 0.025878, 0.542394, 0.280582, 0.199607, -0.176261, -0.0626088, -0.089824, 0, 0, 0, 18.784, -0.176261, -0.0626088, -0.089824, 4.71279, 4.23762, 4.35819, 5.47544, 0.363212, 0.336639, 0.343496, 0.403523, 0.554971, 0.493538, 0.191259, 
[2024-07-23 13:58:19.433698] [0x0000007f8defc9a0] [LogDataTag] [0x00003de4] [3411] , 10.4316, 1418, 0, 0, -2.00514, -0.44825, -0.35119, -0.461148, 0.00472158, -0.785279, 0.00471092, -0.760555, -0.152367, -0.3, 0.0430916, -0.3, -5.74576e-07, 1.44197e-07, 0, 0, 0, 0, 0.00300787, 0.00182387, -0.00982653, -0.0118476, -0.0205765, -0.0182882, -0.0474344, 0, 0, -0.00348678, 0, 0, -0.0315975, 0, 0, -0.19711, 0, 0, -0.00362402, 0, 0, -0.0312242, 0, 0, -0.190762, 0.00182387, -0.00982653, -0.0083608, -0.0205765, -0.0182882, -0.0158368, 1.54601e-05, -0.0010612, -0.000970844, 0, 0, 0.000137233, 0, 0, 1.828e-05, 0, 0, -1.89388, 0.315493, 0.733627, -18.5571, 0, 0, 0, 0.602145, 0.86465, -18.5444, 0.0465677, -0.0324591, 0, -0.284366, 0.0963653, 0, -0.00696136, 0.0156909, -0.00609143, -0.00696136, 0.0156909, -0.00609143, 0.00301841, 1.58725, -0.00301841, 0.497407, 0.199007, -0.111085, -0.053529, 0.0481499, -0.00609143, -0.0386388, -0.00513224, -0.000521363, 0.781773, 0.102641, -0.111085, -0.279415, 0.0920467, 0.000766768, 0.189971, -0.306518, 0.00783961, 0.00112941, 0.0114198, 0.000192287, -0.0894438, -0.214471, 0.00860637, -4.54253, 2.51743, -0.0673425, 0.49915, 0.199775, -0.109683, -0.157209, -0.05029, 0.0584264, 0, 0, 0, 18.5743, -0.157209, -0.05029, 0.0584264, 5.01334, 4.56106, 4.01594, 4.98396, 0.379425, 0.354856, 0.323823, 0.37786, 0.588594, 0.414247, -0.11829, 
[2024-07-23 13:58:19.443733] [0x0000007f8defc9a0] [LogDataTag] [0x00003de4] [3416] , 10.4416, 1494, 0, 0, 0.362491, 0.470599, -4.81831, -0.462373, 0.00471685, -0.742338, -0.79526, -0.758198, -0.0430294, -0.3, -0.3, -0.3, -6.8062e-06, -1.07207e-05, 0, 0, 0, 0, 0.00471815, 0.00192172, -0.0101491, -0.0122711, 0.0176905, -0.0525783, -0.0405057, 0, 0, -0.00380276, 0, 0, -0.0335686, 0, 0, -0.203679, 0, 0, -0.00394566, 0, 0, -0.0331631, 0, 0, -0.197315, 0.00192172, -0.0101491, -0.00846832, 0.0176905, -0.0525783, -0.0069371, 3.36988e-05, -0.00115947, -0.00105445, 0, 0, 0.000142902, 0, 0, 1.96524e-05, 0, 0, -2.01737, -0.397202, 1.38222, -18.7809, 0, 0, 0, -0.0562667, 1.4288, -18.7815, 0.0759283, 0.00299585, 0, -0.891275, -0.630517, 0, -0.00259288, 0.0185391, -0.00528259, -0.00259288, 0.0185391, -0.00528259, 0.00262928, 1.58942, -0.00262928, 0.616293, 0.373276, 0.141838, -0.0785212, 0.0155433, -0.00528259, -0.0391741, -0.00465074, -0.000582277, 1.50757, 1.00379, 0.141838, -0.884073, -0.631898, -0.00152815, 0.749204, 0.442601, 0.0094611, 0.00302912, 0.00835458, 0.000270683, -0.134869, -0.189297, 0.00793295, -9.65809, -4.5064, 0.369702, 0.613664, 0.372907, 0.142781, -0.202288, -0.0872367, -0.0649018, 0, 0, 0, 18.8359, -0.202288, -0.0872367, -0.0649018, 4.78265, 4.3162, 4.18796, 5.54906, 0.367021, 0.341117, 0.333792, 0.407275, 0.748533, 0.562204, 0.134848, 
[2024-07-23 13:58:19.453805] [0x0000007f8defc9a0] [LogDataTag] [0x00003de4] [3421] , 10.4516, 1554, 0, 0, -0.00985447, -2.00484, -0.353568, -0.453585, 0.00470694, 0.00472243, 0.00471328, -0.775071, -0.0291654, -0.152308, 0.0429312, -0.3, 1.49005e-06, -7.02495e-07, 0, 0, 0, 0, 0.00243483, 0.00200983, -0.0103624, -0.0126898, -0.00696833, -0.0218516, -0.0436895, 0, 0, -0.00413844, 0, 0, -0.0356054, 0, 0, -0.210298, 0, 0, -0.00428726, 0, 0, -0.0351691, 0, 0, -0.203877, 0.00200983, -0.0103624, -0.00855139, -0.00696833, -0.0218516, -0.00808412, 5.2916e-05, -0.00126096, -0.00113914, 0, 0, 0.000148821, 0, 0, 2.10814e-05, 0, 0, -2.14618, 0.0564929, 0.821683, -18.7595, 0, 0, 0, 0.454197, 0.754592, -18.7569, 0.0401967, -0.0242102, 0, -0.545941, -0.282184, 0, 0.0035925, 0.0214346, -0.00529843, 0.0035925, 0.0214346, -0.00529843, 0.00266847, 1.59237, -0.00266847, 0.59149, 0.247089, -0.0237591, -0.0366042, 0.0456448, -0.00529843, -0.0399593, -0.00449531, -0.000635103, 1.13743, 0.529273, -0.0237591, -0.542509, -0.286274, 0.00113947, 0.311059, 0.051913, 0.0104905, 0.0105212, 0.0127806, 0.000365294, -0.23145, -0.234361, 0.01163, -2.50844, 2.34839, 0.138039, 0.591999, 0.247002, -0.0246412, -0.113045, -0.0095755, 0.0153568, 0, 0, 0, 18.7775, -0.113045, -0.0095755, 0.0153568, 4.96291, 4.50136, 4.37676, 4.93651, 0.376735, 0.351536, 0.344545, 0.375323, 0.823449, 0.481363, -0.0362712, 
[2024-07-23 13:58:19.463876] [0x0000007f8defc9a0] [LogDataTag] [0x00003de4] [3425] , 10.4616, 1588, 0, 0, 0.362886, 0.44427, -4.84755, -0.44896, 0.00471737, -0.792876, -0.799763, -0.783922, -0.0430027, -0.3, -0.3, -0.3, -4.87895e-06, -6.82831e-06, 0, 0, 0, 0, 0.00317179, 0.00239336, -0.0109767, -0.0138897, 0.0145017, -0.026259, -0.047665, 0, 0, -0.0044945, 0, 0, -0.0377084, 0, 0, -0.216778, 0, 0, -0.00464855, 0, 0, -0.0372366, 0, 0, -0.210426, 0.00239336, -0.0109767, -0.00939525, 0.0145017, -0.026259, -0.00995663, 7.30143e-05, -0.00136458, -0.00122465, 0, 0, 0.00015405, 0, 0, 2.25696e-05, 0, 0, -2.28008, -0.355251, 0.928161, -18.6683, 0, 0, 0, 0.126988, 0.681365, -18.6819, 0.036455, -0.00679726, 0, -0.87835, -0.519065, 0, 0.0131891, 0.0258934, -0.00130662, 0.0131891, 0.0258934, -0.00130662, 0, 1.59831, 0, 0.114331, 0.162648, 0.247518, -0.0232659, 0.0326906, -0.00130662, -0.0403253, -0.00403886, -0.000688088, 0.99268, 0.681713, 0.247518, -0.876115, -0.521947, 0.00691603, 0.619581, 0.31107, 0.00609433, 0.0136317, 0.0132997, 0.000470199, -0.256534, -0.210877, 0.0130104, -7.41104, -2.66393, 0.0282444, 0.107922, 0.165897, 0.245268, -0.135412, -0.0570269, -0.117301, 0, 0, 0, 18.6947, -0.135412, -0.0570269, -0.117301, 4.54497, 4.2257, 4.50999, 5.41409, 0.353963, 0.335957, 0.352016, 0.400379, 0.364457, 0.376775, 0.232258, 
[2024-07-23 13:58:19.473625] [0x0000007f8defc9a0] [LogDataTag] [0x00003de4] [3429] , 10.4716, 1383, 0, 0, 0.362886, 0.44427, -4.84755, -0.44896, 0.00471737, -0.792876, -0.799763, -0.783922, -0.0430027, -0.3, -0.3, -0.3, -4.87895e-06, -6.82831e-06, 0, 0, 0, 0, 0.00317179, 0.00239336, -0.0109767, -0.0138897, 0.0145017, -0.026259, -0.047665, 0, 0, -0.00487158, 0, 0, -0.0398762, 0, 0, -0.223514, 0, 0, -0.00503219, 0, 0, -0.0393772, 0, 0, -0.216992, 0.00239336, -0.0109767, -0.00901816, 0.0145017, -0.026259, -0.00778886, 9.69479e-05, -0.00147435, -0.0013186, 0, 0, 0.00016061, 0, 0, 2.41101e-05, 0, 0, -2.4199, -0.355335, 0.928546, -18.7598, 0, 0, 0, 0.129271, 0.680545, -18.7733, 0.0362339, -0.00688579, 0, -0.943941, -0.261635, 0, 0.0131891, 0.0258934, -0.00130662, 0.0131891, 0.0258934, -0.00130662, 0, 1.59831, 0, 0.114331, 0.162648, 0.247518, -0.0230448, 0.0327792, -0.00130662, -0.040558, -0.00371196, -0.000701154, 1.05827, 0.424283, 0.247518, -0.941726, -0.264549, 0.00352109, 0.611081, 0.0270321, 0.00977171, 0.0198276, 0.0164104, 0.000531142, -0.330645, -0.237517, 0.0132928, -6.9594, 0.373694, -0.00368337, 0.107922, 0.165897, 0.245268, -0.134664, -0.0394973, -0.117303, 0, 0, 0, 18.7861, -0.134664, -0.0394973, -0.117303, 4.61106, 4.20528, 4.57946, 5.3903, 0.357622, 0.334787, 0.355876, 0.399155, 0.438567, 0.403414, 0.231975, 
[2024-07-23 13:58:19.483792] [0x0000007f8defc9a0] [LogDataTag] [0x00003de4] [3434] , 10.4816, 1485, 0, 0, 0.358704, 0.355686, -0.446535, -0.450026, 0.00471246, 0.00470972, -0.788554, -0.781882, -0.0432852, -0.0434891, -0.3, -0.3, -3.42124e-06, -1.50427e-06, 0, 0, 0, 0, 0.0039804, 0.00253032, -0.0111582, -0.0143897, 0.00715267, -0.0351354, -0.051911, 0, 0, -0.00527034, 0, 0, -0.0421113, 0, 0, -0.230151, 0, 0, -0.00543721, 0, 0, -0.0415814, 0, 0, -0.223543, 0.00253032, -0.0111582, -0.00911936, 0.00715267, -0.0351354, -0.00979966, 0.000120881, -0.00158412, -0.00140878, 0, 0, 0.000166867, 0, 0, 2.57162e-05, 0, 0, -2.56514, -0.224175, 1.10064, -18.7159, 0, 0, 0, 0.260667, 0.836145, -18.7291, 0.0446102, -0.0139168, 0, -0.825308, -0.107921, 0, 0.0141214, 0.0259309, -0.000453742, 0.0141214, 0.0259309, -0.000453742, 0, 1.59858, 0, 0.053138, -0.0664607, 0.0446476, -0.0304888, 0.0398477, -0.000453742, -0.0407884, -0.00338417, -0.00071422, 0.878445, 0.0414599, 0.0446476, -0.822421, -0.111484, 0.0015892, 0.422182, -0.122296, 0.0116668, 0.0259384, 0.0166807, 0.000628859, -0.400239, -0.23378, 0.013256, -5.7745, 0.83205, -0.0096095, 0.0519803, -0.0658238, 0.0455666, -0.137017, -0.031275, -0.0210325, 0, 0, 0, 18.7496, -0.137017, -0.031275, -0.0210325, 4.86497, 4.40641, 4.34944, 5.12875, 0.371477, 0.346216, 0.343001, 0.385535, 0.452219, 0.167956, 0.0323107, 
[2024-07-23 13:58:19.493620] [0x0000007f8defc9a0] [LogDataTag] [0x00003de4] [3438] , 10.4916, 1383, 0, 0, 4.80683, 4.82691, -0.448722, -0.454068, -0.793489, -0.796585, -0.784376, -0.774146, -0.3, -0.3, -0.3, -0.3, -3.13262e-05, 5.00263e-06, 0, 0, 0, 0, 0.00414302, 0.00274722, -0.0114176, -0.0147679, 0.0193508, -0.0413521, -0.0453714, 0, 0, -0.00569146, 0, 0, -0.0444128, 0, 0, -0.236674, 0, 0, -0.00586411, 0, 0, -0.0438485, 0, 0, -0.230072, 0.00274722, -0.0114176, -0.00907643, 0.0193508, -0.0413521, -0.000958613, 0.000146185, -0.0016957, -0.00149998, 0, 0, 0.000172655, 0, 0, 2.73849e-05, 0, 0, -2.71584, -0.45812, 1.22655, -18.9483, 0, 0, 0, 0.0257604, 0.946512, -18.9699, 0.0498542, -0.00135797, 0, -0.507039, -0.135516, 0, 0.0147549, 0.0255674, -0.00055038, 0.0147549, 0.0255674, -0.00055038, 0, 1.5984, 0, 0.10592, -0.0315926, -0.0356945, -0.0350992, 0.0269254, -0.00055038, -0.0410933, -0.00298569, -0.000718757, 0.612959, 0.103923, -0.0356945, -0.503736, -0.137913, 0.0020518, 0.0457525, -0.0875461, 0.0111081, 0.0301602, 0.0154578, 0.000745527, -0.457984, -0.225459, 0.0131599, -2.14651, 0.506618, 0.000806882, 0.106833, -0.0321157, -0.0352128, -0.121334, -0.0306593, 0.0175055, 0, 0, 0, 18.9935, -0.121334, -0.0306593, 0.0175055, 4.98684, 4.59596, 4.35268, 5.05799, 0.378013, 0.356789, 0.343184, 0.381796, 0.564816, 0.193343, -0.0483727, 
[2024-07-23 13:58:19.503646] [0x0000007f8defc9a0] [LogDataTag] [0x00003de4] [3443] , 10.5016, 1423, 0, 0, 0.357731, 0.0118158, -0.452971, -0.448198, 0.0047115, 0.0047076, -0.776247, -0.785378, -0.0433509, 0.0270148, -0.3, -0.3, -4.07756e-06, -1.99816e-06, 0, 0, 0, 0, 0.00609672, 0.00291509, -0.0116988, -0.01524, 0.00631932, -0.0485011, -0.060864, 0, 0, -0.00613559, 0, 0, -0.0467796, 0, 0, -0.243178, 0, 0, -0.00631402, 0, 0, -0.0461808, 0, 0, -0.236581, 0.00291509, -0.0116988, -0.00910443, 0.00631932, -0.0485011, -0.0140845, 0.000173657, -0.00180988, -0.00159074, 0, 0, 0.000178436, 0, 0, 2.91114e-05, 0, 0, -2.87228, -0.222788, 1.37061, -18.636, 0, 0, 0, 0.230379, 1.09489, -18.6541, 0.0586226, -0.0123494, 0, -0.201971, 0.0749669, 0, 0.0147697, 0.0244267, -0.00150916, 0.0147697, 0.0244267, -0.00150916, 0, 1.59735, 0, -0.0813254, -0.155301, -0.106957, -0.0438529, 0.0367761, -0.00150916, -0.0414443, -0.00271643, -0.000724261, 0.120645, -0.230268, -0.106957, -0.19788, 0.0716593, -0.00102249, -0.281569, -0.292052, 0.0141904, 0.0306177, 0.0145823, 0.000856607, -0.479449, -0.220393, 0.0131679, 1.97064, 3.77281, -0.0247372, -0.0787131, -0.156863, -0.10462, -0.035237, 0.0137694, 0.0525943, 0, 0, 0, 18.6876, -0.035237, 0.0137694, 0.0525943, 4.91608, 4.6863, 4.49833, 4.5869, 0.374227, 0.361762, 0.351366, 0.356287, 0.400736, 0.0635299, -0.117788, 
[2024-07-23 13:58:19.513615] [0x0000007f8defc9a0] [LogDataTag] [0x00003de4] [3447] , 10.5116, 1389, 0, 0, 4.8588, 0.359503, -0.454564, -4.81655, -0.801491, 0.0047133, -0.773195, -0.794989, -0.3, -0.0432312, -0.3, -0.3, -2.2306e-05, -7.91151e-06, 0, 0, 0, 0, 0.00576355, 0.00337088, -0.0122022, -0.0161549, 0.0139922, -0.0416833, -0.0618891, 0, 0, -0.00660338, 0, 0, -0.0492114, 0, 0, -0.249609, 0, 0, -0.0067873, 0, 0, -0.0485768, 0, 0, -0.243063, 0.00337088, -0.0122022, -0.00955152, 0.0139922, -0.0416833, -0.0126778, 0.000202808, -0.00192686, -0.00168179, 0, 0, 0.000183922, 0, 0, 3.08958e-05, 0, 0, -3.03444, -0.381501, 1.26472, -18.6522, 0, 0, 0, 0.0211615, 1.10044, -18.6665, 0.0588843, -0.00113366, 0, 0.104869, -0.0202792, 0, 0.00877394, 0.021682, -0.0014326, 0.00877394, 0.021682, -0.0014326, 0, 1.59335, 0, -0.258931, -0.156731, 0.0629922, -0.0501104, 0.0228156, -0.0014326, -0.0418829, -0.00234867, -0.000739353, -0.3638, -0.136451, 0.0629922, 0.109525, -0.0223232, 0.000230428, -0.569267, -0.160342, 0.0126901, 0.027802, 0.0116618, 0.000998512, -0.459742, -0.182665, 0.0129206, 7.11764, 2.60485, -0.0387968, -0.260296, -0.156172, 0.0643501, 0.0938778, 0.0181503, -0.0288119, 0, 0, 0, 18.6989, 0.0938778, 0.0181503, -0.0288119, 4.4384, 4.7694, 5.00412, 4.48699, 0.348013, 0.3663, 0.378934, 0.350733, 0.199446, 0.0264928, 0.0514296, 
[2024-07-23 13:58:19.523785] [0x0000007f8defc9a0] [LogDataTag] [0x00003de4] [3452] , 10.5216, 1506, 0, 0, 4.8588, 0.359503, -0.454564, -4.81655, -0.801491, 0.0047133, -0.773195, -0.794989, -0.3, -0.0432312, -0.3, -0.3, -2.2306e-05, -7.91151e-06, 0, 0, 0, 0, 0.00576355, 0.00337088, -0.0122022, -0.0161549, 0.0139922, -0.0416833, -0.0618891, 0, 0, -0.00709549, 0, 0, -0.0517075, 0, 0, -0.256194, 0, 0, -0.0072859, 0, 0, -0.0510425, 0, 0, -0.249531, 0.00337088, -0.0122022, -0.00905941, 0.0139922, -0.0416833, -0.0101817, 0.000236516, -0.00204888, -0.0017773, 0, 0, 0.000190409, 0, 0, 3.2735e-05, 0, 0, -3.20287, -0.38162, 1.26515, -18.7592, 0, 0, 0, 0.0233632, 1.09993, -18.7735, 0.0585223, -0.00124447, 0, 0.227287, 0.12051, 0, 0.00877394, 0.021682, -0.0014326, 0.00877394, 0.021682, -0.0014326, 0, 1.59335, 0, -0.258931, -0.156731, 0.0629922, -0.0497484, 0.0229264, -0.0014326, -0.042384, -0.00212052, -0.000753679, -0.486218, -0.27724, 0.0629922, 0.231912, 0.11845, -0.00100462, -0.620478, -0.275066, 0.0135372, 0.0221094, 0.0100584, 0.00112541, -0.388566, -0.156616, 0.0125326, 10.0615, 4.93198, -0.0124257, -0.260296, -0.156172, 0.0643501, 0.184298, 0.0503342, -0.0286548, 0, 0, 0, 18.8057, 0.184298, 0.0503342, -0.0286548, 4.34378, 4.91819, 5.31717, 4.22656, 0.34268, 0.37434, 0.395378, 0.336006, 0.12827, 0.000444278, 0.0518175, 
[2024-07-23 13:58:19.533922] [0x0000007f8defc9a0] [LogDataTag] [0x00003de4] [3457] , 10.5316, 1636, 0, 0, 0.451809, 1.88919, -0.458548, -4.81452, -0.778471, 0.00472278, -0.765552, -0.794675, -0.3, 0.16608, -0.3, -0.3, -8.9514e-06, -5.34114e-06, 0, 0, 0, 0, 0.00358722, 0.00355067, -0.0124136, -0.01655, 0.017018, -0.0412164, -0.0399851, 0, 0, -0.00761257, 0, 0, -0.0542694, 0, 0, -0.262672, 0, 0, -0.00780916, 0, 0, -0.0535712, 0, 0, -0.255961, 0.00355067, -0.0124136, -0.00893741, 0.017018, -0.0412164, 0.0142842, 0.000270225, -0.00217091, -0.00186789, 0, 0, 0.000196586, 0, 0, 3.46391e-05, 0, 0, -3.3772, -0.444288, 1.26534, -19.3809, 0, 0, 0, -0.0565914, 1.15694, -19.3927, 0.0595876, 0.00291817, 0, 0.238993, 0.161402, 0, 0.00557022, 0.020059, -0.000892301, 0.00557022, 0.020059, -0.000892301, 0, 1.59123, 0, -0.429417, -0.198562, 0.0922887, -0.0540173, 0.0171408, -0.000892301, -0.0428814, -0.00189125, -0.000768005, -0.66841, -0.359965, 0.0922887, 0.244004, 0.159864, -0.000866501, -0.531955, -0.26716, 0.0132748, 0.0159046, 0.00730772, 0.00126079, -0.287951, -0.107297, 0.0124083, 11.2616, 4.78899, 0.030934, -0.431268, -0.198045, 0.0933748, 0.284288, 0.0596271, -0.0435814, 0, 0, 0, 19.4273, 0.284288, 0.0596271, -0.0435814, 4.26046, 5.2389, 5.75891, 4.16898, 0.337944, 0.391309, 0.417847, 0.3327, -0.143318, -0.0907487, 0.0809664, 
[2024-07-23 13:58:19.543615] [0x0000007f8defc9a0] [LogDataTag] [0x00003de4] [3461] , 10.5416, 1391, 0, 0, 0.448811, 4.84323, -0.446741, -0.356707, -0.784206, -0.799098, -0.788161, 0.00471703, -0.3, -0.3, -0.3, 0.0427196, -1.57765e-05, 2.30296e-06, 0, 0, 0, 0, 0.00414381, 0.0038302, -0.0126143, -0.0169132, 0.0249546, -0.0281176, -0.0522539, 0, 0, -0.00815526, 0, 0, -0.0568961, 0, 0, -0.269079, 0, 0, -0.00835788, 0, 0, -0.0561633, 0, 0, -0.262353, 0.0038302, -0.0126143, -0.0087579, 0.0249546, -0.0281176, 0.00464217, 0.000305732, -0.00229504, -0.00195727, 0, 0, 0.000202615, 0, 0, 3.66049e-05, 0, 0, -3.55759, -0.601559, 1.03103, -19.1681, 0, 0, 0, -0.251415, 1.02937, -19.176, 0.0536239, 0.0131102, 0, 0.222949, 0.220173, 0, 0.000108689, 0.0182255, 0.000693423, 0.000108689, 0.0182255, 0.000693423, 0, 1.58902, 0, -0.559584, -0.163799, 0.163814, -0.0535152, 0.00511526, 0.000693423, -0.0434216, -0.00171984, -0.000776928, -0.782533, -0.383972, 0.163814, 0.227917, 0.219719, -3.15327e-05, -0.403252, -0.279125, 0.0127492, 0.010585, 0.00463612, 0.00139353, -0.175335, -0.0594066, 0.0127177, 10.666, 5.03282, 0.0934309, -0.56257, -0.163781, 0.163805, 0.330466, 0.0686885, -0.0795141, 0, 0, 0, 19.2052, 0.330466, 0.0686885, -0.0795141, 4.03556, 5.17613, 5.91927, 4.07427, 0.324969, 0.388025, 0.425808, 0.327222, -0.387234, -0.104375, 0.151087, 
[2024-07-23 13:58:19.553732] [0x0000007f8defc9a0] [LogDataTag] [0x00003de4] [3465] , 10.5516, 1491, 0, 0, 0.454773, 4.82275, -0.454348, -0.444394, -0.772794, -0.795944, -0.773609, -0.79264, -0.3, -0.3, -0.3, -0.3, -2.34509e-05, -7.26998e-07, 0, 0, 0, 0, 0.00456534, 0.00410025, -0.0128054, -0.0172564, 0.023449, -0.0506525, -0.0380764, 0, 0, -0.00872422, 0, 0, -0.0595869, 0, 0, -0.27536, 0, 0, -0.00893237, 0, 0, -0.0588169, 0, 0, -0.2687, 0.00410025, -0.0128054, -0.00853221, 0.023449, -0.0506525, 0.0215105, 0.000344034, -0.00242119, -0.00204485, 0, 0, 0.000208145, 0, 0, 3.86311e-05, 0, 0, -3.74401, -0.583527, 1.45666, -19.6097, 0, 0, 0, -0.254933, 1.54078, -19.6103, 0.078402, 0.0129992, 0, 0.0847982, 0.373877, 0, -0.00423273, 0.0166131, 0.00188778, -0.00423273, 0.0166131, 0.00188778, 0, 1.58767, 0, -0.535003, -0.16128, 0.170434, -0.0826347, 0.00361391, 0.00188778, -0.0439568, -0.00166869, -0.000769994, -0.619801, -0.535157, 0.170434, 0.0923897, 0.373554, 0.00154957, -0.161065, -0.382633, 0.0121024, 0.0065525, 0.00184487, 0.00152103, -0.0686755, -0.00907838, 0.013652, 7.05355, 6.10256, 0.178016, -0.537834, -0.162, 0.169727, 0.300975, 0.0804588, -0.0839944, 0, 0, 0, 19.6724, 0.300975, 0.0804588, -0.0839944, 4.23813, 5.18512, 6.01065, 4.23851, 0.336668, 0.388497, 0.430301, 0.33669, -0.469159, -0.152921, 0.156075, 
[2024-07-23 13:58:19.563713] [0x0000007f8defc9a0] [LogDataTag] [0x00003de4] [3470] , 10.5616, 1474, 0, 0, 0.470019, 4.81949, -0.459697, -0.446595, -0.743457, -0.795441, -0.763344, -0.78844, -0.3, -0.3, -0.3, -0.3, -3.04156e-05, -1.68821e-06, 0, 0, 0, 0, 0.00574243, 0.00466646, -0.0132741, -0.0178847, 0.0276257, -0.0622794, -0.0331742, 0, 0, -0.00932009, 0, 0, -0.0623405, 0, 0, -0.281519, 0, 0, -0.00953323, 0, 0, -0.0615317, 0, 0, -0.274996, 0.00466646, -0.0132741, -0.00856465, 0.0276257, -0.0622794, 0.0291663, 0.000385036, -0.00254924, -0.00213017, 0, 0, 0.000213134, 0, 0, 4.07126e-05, 0, 0, -3.93655, -0.681477, 1.69121, -19.8072, 0, 0, 0, -0.420464, 1.98127, -19.7876, 0.0997719, 0.0212457, 0, 0.406894, 0.37991, 0, -0.0145579, 0.0129498, 0.00263759, -0.0145579, 0.0129498, 0.00263759, -0.00136593, 1.58732, 0.00136593, -0.568275, -0.279639, 0.0042374, -0.11433, -0.00829589, 0.00263759, -0.0447831, -0.00163255, -0.000751116, -0.975169, -0.659549, 0.0042374, 0.417341, 0.380623, 0.00549472, -0.415481, -0.328676, 0.00993744, 0.00494184, -0.00198146, 0.00164205, 0.00186, 0.0519472, 0.0154322, 8.29305, 5.17972, 0.213691, -0.56833, -0.279671, 0.00016578, 0.318072, 0.0909845, -0.00616433, 0, 0, 0, 19.8909, 0.318072, 0.0909845, -0.00616433, 4.47246, 5.44271, 5.93956, 4.03622, 0.349921, 0.401848, 0.426808, 0.325007, -0.57019, -0.331619, -0.0152664, 
[2024-07-23 13:58:19.573677] [0x0000007f8defc9a0] [LogDataTag] [0x00003de4] [3475] , 10.5716, 1489, 0, 0, 0.470019, 4.81949, -0.459697, -0.446595, -0.743457, -0.795441, -0.763344, -0.78844, -0.3, -0.3, -0.3, -0.3, -3.04156e-05, -1.68821e-06, 0, 0, 0, 0, 0.00574243, 0.00466646, -0.0132741, -0.0178847, 0.0276257, -0.0622794, -0.0331742, 0, 0, -0.0099435, 0, 0, -0.0651557, 0, 0, -0.288, 0, 0, -0.0101638, 0, 0, -0.0643189, 0, 0, -0.281266, 0.00466646, -0.0132741, -0.00794125, 0.0276257, -0.0622794, 0.0319815, 0.000431701, -0.00268198, -0.00221582, 0, 0, 0.000220265, 0, 0, 4.28439e-05, 0, 0, -4.13614, -0.681641, 1.69168, -19.9308, 0, 0, 0, -0.419026, 1.98353, -19.9112, 0.0992696, 0.0210416, 0, 0.825431, 0.453724, 0, -0.0145579, 0.0129498, 0.00263759, -0.0145579, 0.0129498, 0.00263759, -0.00136593, 1.58732, 0.00136593, -0.568275, -0.279639, 0.0042374, -0.113828, -0.00809181, 0.00263759, -0.0459264, -0.00171551, -0.00072474, -1.39371, -0.733363, 0.0042374, 0.835837, 0.45441, 0.00656878, -0.751047, -0.350666, 0.0110003, 0.000787037, -0.00526822, 0.00174142, 0.0847905, 0.103744, 0.0175691, 9.65079, 5.51816, 0.254544, -0.56833, -0.279671, 0.00016578, 0.298767, 0.0995012, -0.00620087, 0, 0, 0, 20.0141, 0.298767, 0.0995012, -0.00620087, 4.5686, 5.40798, 5.94868, 4.08887, 0.355274, 0.400064, 0.427257, 0.32807, -0.65312, -0.383416, -0.0174033, 
[2024-07-23 13:58:19.583737] [0x0000007f8defc9a0] [LogDataTag] [0x00003de4] [3479] , 10.5816, 1542, 0, 0, 4.80917, 4.81372, -0.449891, -2.0057, -0.79385, -0.794552, -0.78214, 0.00472006, -0.3, -0.3, -0.3, -0.152475, -2.4767e-05, 4.39182e-06, 0, 0, 0, 0, 0.00367197, 0.00568959, -0.0141311, -0.0186045, 0.021327, -0.0362493, -0.0436248, 0, 0, -0.0105951, 0, 0, -0.0680357, 0, 0, -0.293859, 0, 0, -0.0108191, 0, 0, -0.0671542, 0, 0, -0.287451, 0.00568959, -0.0141311, -0.00800945, 0.021327, -0.0362493, 0.0244109, 0.000478366, -0.00281472, -0.00229523, 0, 0, 0.000224078, 0, 0, 4.50465e-05, 0, 0, -4.34113, -0.601968, 1.2439, -19.7511, 0, 0, 0, -0.442129, 1.88959, -19.7041, 0.0955822, 0.0224347, 0, 0.869483, 0.41034, 0, -0.0326472, 0.00793218, 0.00253267, -0.0326472, 0.00793218, 0.00253267, -0.00133108, 1.59519, 0.00133108, -0.72109, -0.00540348, 0.0541572, -0.128229, -0.0145025, 0.00253267, -0.0470647, -0.00179643, -0.000698364, -1.59057, -0.415744, 0.0541572, 0.881189, 0.411434, 0.0133918, -0.69989, -0.252508, 0.00672267, -0.00672343, -0.00877488, 0.00185143, 0.181298, 0.158926, 0.0201145, 8.10504, 4.06777, 0.315552, -0.721519, -0.0071683, 0.0539502, 0.308243, 0.0662281, -0.0281897, 0, 0, 0, 19.7994, 0.308243, 0.0662281, -0.0281897, 4.35416, 5.40695, 5.88514, 4.15315, 0.343267, 0.400012, 0.424122, 0.331788, -0.902818, -0.166094, 0.0338357, 
[2024-07-23 13:58:19.593615] [0x0000007f8defc9a0] [LogDataTag] [0x00003de4] [3483] , 10.5916, 1392, 0, 0, 4.80917, 4.81372, -0.449891, -2.0057, -0.79385, -0.794552, -0.78214, 0.00472006, -0.3, -0.3, -0.3, -0.152475, -2.4767e-05, 4.39182e-06, 0, 0, 0, 0, 0.00367197, 0.00568959, -0.0141311, -0.0186045, 0.021327, -0.0362493, -0.0436248, 0, 0, -0.0112754, 0, 0, -0.0709743, 0, 0, -0.300265, 0, 0, -0.0115068, 0, 0, -0.0700662, 0, 0, -0.293613, 0.00568959, -0.0141311, -0.00732909, 0.021327, -0.0362493, 0.0273495, 0.000535261, -0.00295603, -0.00237532, 0, 0, 0.000231341, 0, 0, 4.72873e-05, 0, 0, -4.55373, -0.602168, 1.24439, -19.8816, 0, 0, 0, -0.441293, 1.89434, -19.8344, 0.0951957, 0.0222452, 0, 0.69075, 0.347886, 0, -0.0326472, 0.00793218, 0.00253267, -0.0326472, 0.00793218, 0.00253267, -0.00133108, 1.59519, 0.00133108, -0.72109, -0.00540348, 0.0541572, -0.127843, -0.014313, 0.00253267, -0.048347, -0.00194146, -0.000673037, -1.41184, -0.35329, 0.0541572, 0.702425, 0.348997, 0.0113525, -0.440076, -0.149393, 0.0119175, -0.0137223, -0.0113, 0.00191865, 0.262349, 0.199604, 0.02327, 5.93823, 2.67262, 0.2549, -0.721519, -0.0071683, 0.0539502, 0.310268, 0.0569949, -0.0281848, 0, 0, 0, 19.9296, 0.310268, 0.0569949, -0.0281848, 4.35846, 5.46775, 5.89857, 4.20477, 0.343511, 0.40313, 0.424786, 0.334758, -0.983868, -0.206772, 0.0306802, 
[2024-07-23 13:58:19.603825] [0x0000007f8defc9a0] [LogDataTag] [0x00003de4] [3488] , 10.6016, 1530, 0, 0, 0.462666, 4.8277, -0.454894, -0.444949, -0.757635, -0.796707, -0.772562, -0.791581, -0.3, -0.3, -0.3, -0.3, -3.14364e-05, -3.16506e-06, 0, 0, 0, 0, 0.00586163, 0.00594497, -0.0143623, -0.018907, 0.0236967, -0.0657656, -0.0312246, 0, 0, -0.0119852, 0, 0, -0.0739769, 0, 0, -0.306358, 0, 0, -0.0122224, 0, 0, -0.0730338, 0, 0, -0.299702, 0.00594497, -0.0143623, -0.00692189, 0.0236967, -0.0657656, 0.0427524, 0.000592157, -0.00309734, -0.00244861, 0, 0, 0.000237285, 0, 0, 4.96007e-05, 0, 0, -4.77253, -0.655484, 1.80104, -20.2992, 0, 0, 0, -0.523791, 2.6032, -20.2158, 0.128023, 0.0259041, 0, 0.495404, 0.261713, 0, -0.0394986, 0.00623657, 0.00282154, -0.0394986, 0.00623657, 0.00282154, -0.00147236, 1.5994, 0.00147236, -0.760944, -0.216755, 0.0683249, -0.167522, -0.0196676, 0.00282154, -0.0496254, -0.00208459, -0.000647711, -1.25635, -0.478468, 0.0683249, 0.510655, 0.263287, 0.0103536, -0.188923, -0.0369568, 0.0154655, -0.0181231, -0.0127939, 0.00203783, 0.321731, 0.22633, 0.025819, 3.66894, 0.843384, 0.183249, -0.76137, -0.219284, 0.059711, 0.332775, 0.0616568, -0.0370621, 0, 0, 0, 20.3895, 0.332775, 0.0616568, -0.0370621, 4.41274, 5.59979, 6.09816, 4.27879, 0.346572, 0.409847, 0.434575, 0.338989, -1.0831, -0.445614, 0.0338919, 
[2024-07-23 13:58:19.613623] [0x0000007f8defc9a0] [LogDataTag] [0x00003de4] [3492] , 10.6116, 1392, 0, 0, 0.448521, 0.445449, -0.444833, -2.00542, -0.784761, -0.790628, -0.791803, 0.00472082, -0.3, -0.3, -0.3, -0.152421, -8.83615e-06, -8.48066e-06, 0, 0, 0, 0, 0.00459554, 0.00636395, -0.0146958, -0.0190641, 0.0271591, -0.0464381, -0.0412483, 0, 0, -0.0127249, 0, 0, -0.0770405, 0, 0, -0.312313, 0, 0, -0.0129677, 0, 0, -0.0760602, 0, 0, -0.305724, 0.00636395, -0.0146958, -0.00633917, 0.0271591, -0.0464381, 0.0357922, 0.000651607, -0.00324096, -0.00251783, 0, 0, 0.000242758, 0, 0, 5.19736e-05, 0, 0, -4.99787, -0.734955, 1.45667, -20.1789, 0, 0, 0, -0.62702, 2.43057, -20.0885, 0.12035, 0.0312027, 0, 0.855423, 0.240465, 0, -0.0482095, 0.00505248, 0.00409615, -0.0482095, 0.00505248, 0.00409615, -0.00210898, 1.60524, 0.00210898, -1.01512, -0.0422735, 0.170428, -0.168559, -0.0261502, 0.00409615, -0.0513006, -0.00228126, -0.000619495, -1.87054, -0.282739, 0.170428, 0.870774, 0.242548, 0.0116251, -0.512353, -0.00778455, 0.0160264, -0.0200123, -0.0131635, 0.00219248, 0.358421, 0.234764, 0.0276515, 7.18238, -0.221305, 0.19513, -1.01598, -0.0504373, 0.168191, 0.415324, 0.0319089, -0.0858171, 0, 0, 0, 20.2448, 0.415324, 0.0319089, -0.0858171, 3.99399, 5.70648, 6.29201, 4.25229, 0.322539, 0.415222, 0.443949, 0.337477, -1.3744, -0.285201, 0.14054, 
[2024-07-23 13:58:19.623878] [0x0000007f8defc9a0] [LogDataTag] [0x00003de4] [3497] , 10.6216, 1563, 0, 0, 4.83432, 0.363359, -0.457587, -4.81761, -0.797726, 0.00471801, -0.767396, -0.795153, -0.3, -0.0429708, -0.3, -0.3, -2.29963e-05, -7.51906e-06, 0, 0, 0, 0, 0.00492136, 0.00663204, -0.0149718, -0.0193807, 0.0135466, -0.0563223, -0.0395682, 0, 0, -0.0134953, 0, 0, -0.0801636, 0, 0, -0.318368, 0, 0, -0.0137446, 0, 0, -0.0791509, 0, 0, -0.311687, 0.00663204, -0.0149718, -0.00588542, 0.0135466, -0.0563223, 0.0405954, 0.000715247, -0.00338792, -0.00258122, 0, 0, 0.000249265, 0, 0, 5.44012e-05, 0, 0, -5.2303, -0.492598, 1.65132, -20.3392, 0, 0, 0, -0.39862, 2.75989, -20.2207, 0.135624, 0.0197109, 0, 0.754191, 0.277419, 0, -0.0545238, 0.0042035, 0.00512989, -0.0545238, 0.0042035, 0.00512989, -0.00262226, 1.60957, 0.00262226, -0.671094, -0.0937724, 0.11966, -0.190148, -0.0155074, 0.00512989, -0.0529862, -0.00254276, -0.000578534, -1.42529, -0.371191, 0.11966, 0.77149, 0.278414, 0.0150972, -0.341246, -0.0458638, 0.0145057, -0.0251359, -0.0132413, 0.00235275, 0.430244, 0.232551, 0.0296028, 3.82427, -0.514436, 0.096782, -0.671597, -0.100154, 0.114371, 0.319983, 0.0211788, -0.0630373, 0, 0, 0, 20.4121, 0.319983, 0.0211788, -0.0630373, 4.27964, 5.61647, 6.03499, 4.48096, 0.339038, 0.410691, 0.431492, 0.350397, -1.10184, -0.332705, 0.084768, 
[2024-07-23 13:58:19.633664] [0x0000007f8defc9a0] [LogDataTag] [0x00003de4] [3501] , 10.6316, 1409, 0, 0, 0.363978, 0.360733, -0.467015, -0.445523, 0.00471886, 0.00471468, -0.749255, -0.790485, -0.042929, -0.0431482, -0.3, -0.3, -6.13003e-06, -2.85756e-06, 0, 0, 0, 0, 0.0067797, 0.00729395, -0.0156722, -0.0198826, 0.0116225, -0.0694195, -0.0427265, 0, 0, -0.014297, 0, 0, -0.0833473, 0, 0, -0.324073, 0, 0, -0.014551, 0, 0, -0.0822943, 0, 0, -0.317566, 0.00729395, -0.0156722, -0.00558559, 0.0116225, -0.0694195, 0.0406208, 0.000781567, -0.00353764, -0.00264008, 0, 0, 0.000254035, 0, 0, 5.68938e-05, 0, 0, -5.46905, -0.481035, 1.92241, -20.371, 0, 0, 0, -0.395587, 3.29292, -20.1966, 0.161591, 0.0195843, 0, 0.833371, 0.0654233, 0, -0.0673936, 0.00360896, 0.00619921, -0.0673936, 0.00360896, 0.00619921, -0.00316043, 1.61857, 0.00316043, -0.622763, -0.0494247, -0.036254, -0.228984, -0.0159753, 0.00619921, -0.0548877, -0.00269784, -0.000527235, -1.45613, -0.114848, -0.036254, 0.854172, 0.0667268, 0.00438374, -0.385685, 0.160679, 0.0261869, -0.0285483, -0.0136999, 0.0024978, 0.468487, 0.227406, 0.0305706, 4.8627, -3.38437, -0.109384, -0.622632, -0.0468711, -0.0394999, 0.363475, -0.011848, 0.0108218, 0, 0, 0, 20.4671, 0.363475, -0.011848, 0.0108218, 4.29206, 5.9947, 5.88075, 4.29961, 0.339745, 0.429519, 0.423904, 0.340174, -1.09112, -0.274277, -0.0700705, 
[2024-07-23 13:58:19.643857] [0x0000007f8defc9a0] [LogDataTag] [0x00003de4] [3506] , 10.6416, 1573, 0, 0, 0.363978, 0.360733, -0.467015, -0.445523, 0.00471886, 0.00471468, -0.749255, -0.790485, -0.042929, -0.0431482, -0.3, -0.3, -6.13003e-06, -2.85756e-06, 0, 0, 0, 0, 0.0067797, 0.00729395, -0.0156722, -0.0198826, 0.0116225, -0.0694195, -0.0427265, 0, 0, -0.0151304, 0, 0, -0.086588, 0, 0, -0.329818, 0, 0, -0.0153898, 0, 0, -0.0854987, 0, 0, -0.323377, 0.00729395, -0.0156722, -0.00475212, 0.0116225, -0.0694195, 0.0438615, 0.000854507, -0.00369436, -0.00269593, 0, 0, 0.000259377, 0, 0, 5.94342e-05, 0, 0, -5.71489, -0.481291, 1.92296, -20.5181, 0, 0, 0, -0.395309, 3.30338, -20.3433, 0.160947, 0.0194294, 0, 1.15034, -0.0403486, 0, -0.0673936, 0.00360896, 0.00619921, -0.0673936, 0.00360896, 0.00619921, -0.00316043, 1.61857, 0.00316043, -0.622763, -0.0494247, -0.036254, -0.22834, -0.0158205, 0.00619921, -0.0571775, -0.00285759, -0.000465243, -1.7731, -0.00907614, -0.036254, 1.17109, -0.0388183, -0.00274061, -0.653973, 0.232381, 0.0322174, -0.0324052, -0.0120931, 0.00275967, 0.517114, 0.193563, 0.0294768, 8.08336, -4.02775, -0.172913, -0.622632, -0.0468711, -0.0394999, 0.41129, -0.0179276, 0.0109079, 0, 0, 0, 20.6136, 0.41129, -0.0179276, 0.0109079, 4.20531, 6.15512, 6.00956, 4.24361, 0.334788, 0.437343, 0.430247, 0.336982, -1.13975, -0.240434, -0.0689767, 
[2024-07-23 13:58:19.653679] [0x0000007f8defc9a0] [LogDataTag] [0x00003de4] [3510] , 10.6516, 1423, 0, 0, -0.00685966, -0.00906712, -0.459505, -2.00411, 0.00470616, 0.00470671, -0.763712, 0.00472458, -9.42591e-05, -0.0292047, -0.3, -0.152166, -1.04479e-06, -3.84772e-06, 0, 0, 0, 0, 0.00452678, 0.00790841, -0.0164389, -0.0204698, -0.00379056, -0.0423162, -0.0521705, 0, 0, -0.0159963, 0, 0, -0.0898862, 0, 0, -0.33544, 0, 0, -0.0162607, 0, 0, -0.0887597, 0, 0, -0.329109, 0.00790841, -0.0164389, -0.00447345, -0.00379056, -0.0423162, 0.0377158, 0.000927446, -0.00385108, -0.00274346, 0, 0, 0.000264345, 0, 0, 6.20279e-05, 0, 0, -5.96761, -0.218086, 1.45179, -20.3966, 0, 0, 0, -0.133487, 3.03108, -20.2231, 0.148772, 0.00660064, 0, 1.09544, -0.0829108, 0, -0.0776634, 0.00376912, 0.00531571, -0.0776634, 0.00376912, 0.00531571, -0.00273107, 1.62583, 0.00273107, -0.565291, 0.0643542, -0.189618, -0.226435, -0.00283152, 0.00531571, -0.0594609, -0.0030158, -0.000403251, -1.66073, 0.147265, -0.189618, 1.11603, -0.0823883, -0.00651484, -0.518078, 0.235673, 0.0342625, -0.0389449, -0.00976934, 0.00308185, 0.597948, 0.153285, 0.0277477, 6.70186, -4.39433, -0.234856, -0.564577, 0.0788717, -0.184052, 0.40064, -0.04481, 0.0860089, 0, 0, 0, 20.4494, 0.40064, -0.04481, 0.0860089, 4.304, 6.34355, 5.69092, 4.11092, 0.340424, 0.44642, 0.414441, 0.329348, -1.16252, -0.0744134, -0.2118, 
[2024-07-23 13:58:19.663729] [0x0000007f8defc9a0] [LogDataTag] [0x00003de4] [3515] , 10.6616, 1545, 0, 0, 0.446179, 0.458114, -0.460876, -0.456035, -0.789233, -0.766385, -0.761078, -0.770375, -0.3, -0.3, -0.3, -0.3, -2.33004e-05, -2.42456e-05, 0, 0, 0, 0, 0.0127294, 0.00818652, -0.0168707, -0.0207552, 0.0384513, -0.0990196, -0.0380261, 0, 0, -0.0168952, 0, 0, -0.0932406, 0, 0, -0.341061, 0, 0, -0.0171649, 0, 0, -0.0920795, 0, 0, -0.334763, 0.00818652, -0.0168707, -0.00386007, 0.0384513, -0.0990196, 0.0552146, 0.00100653, -0.00401547, -0.00278819, 0, 0, 0.000269739, 0, 0, 6.46714e-05, 0, 0, -6.2275, -1.01115, 2.52028, -20.879, 0, 0, 0, -0.900541, 4.22589, -20.6068, 0.202081, 0.0436734, 0, 0.701213, -0.293633, 0, -0.0818933, 0.00460184, 0.00575267, -0.0818933, 0.00460184, 0.00575267, -0.0029706, 1.62887, 0.0029706, -0.293596, 0.196869, 0.143401, -0.283974, -0.0390716, 0.00575267, -0.0617253, -0.00304411, -0.000350094, -0.994808, 0.490501, 0.143401, 0.726987, -0.289124, -0.023843, -0.0620208, 0.398466, 0.0492421, -0.0441257, -0.0074126, 0.00342447, 0.664966, 0.109342, 0.0253991, 2.47046, -6.61685, -0.338962, -0.294255, 0.184479, 0.159023, 0.372212, -0.068867, -0.073595, 0, 0, 0, 21.0549, 0.372212, -0.068867, -0.073595, 4.06556, 6.10005, 6.10875, 4.78052, 0.326716, 0.434667, 0.43509, 0.366905, -0.959222, 0.0751369, 0.133624, 
[2024-07-23 13:58:19.673635] [0x0000007f8defc9a0] [LogDataTag] [0x00003de4] [3519] , 10.6716, 1412, 0, 0, 1.89748, 0.444825, -0.460724, -0.451554, 0.00472043, -0.791818, -0.761369, -0.77896, 0.166261, -0.3, -0.3, -0.3, -2.26008e-05, -3.33656e-06, 0, 0, 0, 0, 0.00871614, 0.00874735, -0.0177214, -0.0214052, 0.0191912, -0.079776, -0.0445378, 0, 0, -0.0178276, 0, 0, -0.0966512, 0, 0, -0.3465, 0, 0, -0.018102, 0, 0, -0.0954532, 0, 0, -0.34033, 0.00874735, -0.0177214, -0.00357762, 0.0191912, -0.079776, 0.0521134, 0.0010884, -0.00418418, -0.00282679, 0, 0, 0.000274434, 0, 0, 6.73688e-05, 0, 0, -6.49431, -0.674754, 2.19814, -20.8324, 0, 0, 0, -0.519032, 4.04863, -20.5576, 0.194392, 0.0252424, 0, 1.26851, 0.253796, 0, -0.089135, 0.00677131, 0.00665584, -0.089135, 0.00677131, 0.00665584, -0.00347891, 1.63416, 0.00347891, -0.316016, 0.182507, 0.199201, -0.283527, -0.0184711, 0.00665584, -0.064565, -0.00343483, -0.000292567, -1.58453, -0.0712889, 0.199201, 1.29425, 0.254468, 0.0226109, -0.604584, -0.211294, -0.000601448, -0.0447459, -0.00342795, 0.00391689, 0.689671, 0.0431732, 0.0220095, 9.39642, 0.846099, -0.0743964, -0.317364, 0.16405, 0.214652, 0.474447, -0.019109, -0.101115, 0, 0, 0, 20.9589, 0.474447, -0.019109, -0.101115, 3.87058, 6.11174, 6.51087, 4.46569, 0.315267, 0.435236, 0.454387, 0.349542, -1.00704, 0.120877, 0.192642, 
[2024-07-23 13:58:19.683648] [0x0000007f8defc9a0] [LogDataTag] [0x00003de4] [3524] , 10.6816, 1451, 0, 0, 1.89748, 0.444825, -0.460724, -0.451554, 0.00472043, -0.791818, -0.761369, -0.77896, 0.166261, -0.3, -0.3, -0.3, -2.26008e-05, -3.33656e-06, 0, 0, 0, 0, 0.00871614, 0.00874735, -0.0177214, -0.0214052, 0.0191912, -0.079776, -0.0445378, 0, 0, -0.0187941, 0, 0, -0.100116, 0, 0, -0.352065, 0, 0, -0.0190746, 0, 0, -0.0988872, 0, 0, -0.345819, 0.00874735, -0.0177214, -0.00261111, 0.0191912, -0.079776, 0.0555784, 0.00117587, -0.00436139, -0.00286257, 0, 0, 0.000280481, 0, 0, 7.01131e-05, 0, 0, -6.76867, -0.675061, 2.19876, -20.9938, 0, 0, 0, -0.518242, 4.06362, -20.7183, 0.193619, 0.0250085, 0, 1.19214, 0.15916, 0, -0.089135, 0.00677131, 0.00665584, -0.089135, 0.00677131, 0.00665584, -0.00347891, 1.63416, 0.00347891, -0.316016, 0.182507, 0.199201, -0.282754, -0.0182372, 0.00665584, -0.0674003, -0.00361954, -0.000226008, -1.50815, 0.0233468, 0.199201, 1.21782, 0.160187, 0.0141844, -0.434186, -0.108553, 0.00708113, -0.0507917, -0.00554089, 0.00391088, 0.783635, 0.0516342, 0.0212655, 5.64109, -0.675203, -0.145595, -0.317364, 0.16405, 0.214652, 0.40947, -0.0340589, -0.10123, 0, 0, 0, 21.1194, 0.40947, -0.0340589, -0.10123, 4.01886, 6.04316, 6.3662, 4.69119, 0.323993, 0.431892, 0.447504, 0.36203, -1.101, 0.112416, 0.193386, 
[2024-07-23 13:58:19.693675] [0x0000007f8defc9a0] [LogDataTag] [0x00003de4] [3528] , 10.6916, 1434, 0, 0, 0.00657832, 0.00724885, -0.455481, -4.80559, 0.00470611, 0.00470625, -0.771438, -0.793298, 9.03931e-05, 9.96069e-05, -0.3, -0.3, -3.70824e-06, -1.3732e-05, 0, 0, 0, 0, 0.0077877, 0.00898143, -0.0181272, -0.02178, 0.0042822, -0.057335, -0.0669482, 0, 0, -0.0197953, 0, 0, -0.103637, 0, 0, -0.357521, 0, 0, -0.0200818, 0, 0, -0.102376, 0, 0, -0.351218, 0.00898143, -0.0181272, -0.00198474, 0.0042822, -0.057335, 0.0366887, 0.00126334, -0.00453861, -0.00288868, 0, 0, 0.000286498, 0, 0, 7.29179e-05, 0, 0, -7.05027, -0.407536, 1.79969, -20.5825, 0, 0, 0, -0.230842, 3.66436, -20.3363, 0.178264, 0.0113507, 0, 0.955423, 0.0883133, 0, -0.0909241, 0.00792281, 0.00755716, -0.0909241, 0.00792281, 0.00755716, -0.0039588, 1.63554, 0.0039588, -0.2649, 0.0439393, 0.0874223, -0.269188, -0.00342792, 0.00755716, -0.0702278, -0.00380191, -0.00015945, -1.22032, -0.0443739, 0.0874223, 0.979897, 0.0882826, 0.00789872, -0.139851, -0.0434004, 0.0119109, -0.0551336, -0.00662642, 0.00398169, 0.840046, 0.0448822, 0.0198096, 2.86104, 0.876944, 0.0287267, -0.265593, 0.0358202, 0.0910481, 0.380563, 0.0126882, -0.0493331, 0, 0, 0, 20.6651, 0.380563, 0.0126882, -0.0493331, 4.21799, 5.87201, 6.17961, 4.39547, 0.335515, 0.423472, 0.438529, 0.3456, -1.10564, -0.00906193, 0.0712385, 
[2024-07-23 13:58:19.703817] [0x0000007f8defc9a0] [LogDataTag] [0x00003de4] [3533] , 10.7016, 1547, 0, 0, 0.363997, 0.447168, -0.44827, -0.458104, 0.00471889, -0.787345, -0.785241, -0.766404, -0.0429277, -0.3, -0.3, -0.3, -1.193e-05, -7.07886e-06, 0, 0, 0, 0, 0.00796007, 0.00932519, -0.0185537, -0.0221497, 0.0230543, -0.0658336, -0.0556283, 0, 0, -0.0208316, 0, 0, -0.107212, 0, 0, -0.362625, 0, 0, -0.0211224, 0, 0, -0.105912, 0, 0, -0.356516, 0.00932519, -0.0185537, -0.0013181, 0.0230543, -0.0658336, 0.0515838, 0.00135316, -0.00471988, -0.00290853, 0, 0, 0.000290776, 0, 0, 7.57829e-05, 0, 0, -7.33868, -0.768097, 1.97478, -21.0037, 0, 0, 0, -0.543469, 3.88155, -20.7433, 0.184922, 0.0261938, 0, 0.452724, -0.175514, 0, -0.0909463, 0.00984902, 0.00896225, -0.0909463, 0.00984902, 0.00896225, -0.00470522, 1.63581, 0.00470522, 0.15822, 0.271132, 0.112691, -0.275868, -0.0163448, 0.00896225, -0.0729197, -0.00383619, -8.38784e-05, -0.294505, 0.446646, 0.112691, 0.477809, -0.173295, -0.0159834, 0.390847, 0.226946, 0.0360803, -0.0565321, -0.00706043, 0.0041008, 0.868656, 0.0536516, 0.0200968, -3.55974, -1.10923, 0.0986217, 0.15711, 0.259777, 0.136844, 0.242782, -0.00526653, -0.0637776, 0, 0, 0, 21.1103, 0.242782, -0.00526653, -0.0637776, 4.55895, 5.68265, 5.9692, 4.89951, 0.354739, 0.414026, 0.428267, 0.373337, -0.711546, 0.206125, 0.116747, 
[2024-07-23 13:58:19.713887] [0x0000007f8defc9a0] [LogDataTag] [0x00003de4] [3537] , 10.7116, 1582, 0, 0, 0.00317473, 0.00342691, -0.455702, -0.448513, 0.00470559, 0.00470562, -0.771012, -0.784776, 4.36241e-05, 4.70895e-05, -0.3, -0.3, -4.24222e-06, -3.00507e-06, 0, 0, 0, 0, 0.00969264, 0.00953277, -0.0189353, -0.0226081, 0.00205619, -0.0714092, -0.0677432, 0, 0, -0.0219038, 0, 0, -0.110838, 0, 0, -0.367624, 0, 0, -0.0221985, 0, 0, -0.1095, 0, 0, -0.361718, 0.00953277, -0.0189353, -0.000704394, 0.00205619, -0.0714092, 0.0430951, 0.00144641, -0.00490542, -0.00292171, 0, 0, 0.000294771, 0, 0, 7.86907e-05, 0, 0, -7.63438, -0.386804, 2.09393, -20.8464, 0, 0, 0, -0.148779, 3.99081, -20.5708, 0.191618, 0.00723241, 0, 0.265625, -0.0260273, 0, -0.091371, 0.0105466, 0.00866069, -0.091371, 0.0105466, 0.00866069, -0.00457143, 1.63622, 0.00457143, -0.160918, 0.0289258, -0.00203871, -0.282989, 0.00331419, 0.00866069, -0.0756784, -0.00399964, 5.74413e-06, -0.426543, 0.0549531, -0.00203871, 0.291361, -0.026186, -0.0025733, 0.541698, 0.0687453, 0.0236564, -0.0526236, -0.00479096, 0.0044616, 0.833059, 0.0425593, 0.0210831, -6.497, 1.12482, 0.125206, -0.160896, 0.0289911, 0.000609209, 0.231661, 0.0318825, -0.00811566, 0, 0, 0, 20.9549, 0.231661, 0.0318825, -0.00811566, 4.77728, 5.66026, 5.86364, 4.6537, 0.366729, 0.412899, 0.423057, 0.359972, -0.993955, -0.0135681, -0.0204739, 
[2024-07-23 13:58:19.723800] [0x0000007f8defc9a0] [LogDataTag] [0x00003de4] [3542] , 10.7216, 1563, 0, 0, 1.89428, 4.86853, -0.447178, -0.458734, 0.00472132, 0.00472299, -0.787326, -0.765194, 0.166191, 0.166064, -0.3, -0.3, -4.8619e-05, 1.52472e-05, 0, 0, 0, 0, 0.0103433, 0.010098, -0.0198605, -0.0235754, 0.0214966, -0.0734215, -0.0670109, 0, 0, -0.0230121, 0, 0, -0.114515, 0, 0, -0.372397, 0, 0, -0.0233098, 0, 0, -0.113137, 0, 0, -0.366819, 0.010098, -0.0198605, -0.000563215, 0.0214966, -0.0734215, 0.0475037, 0.00154174, -0.00509477, -0.00292875, 0, 0, 0.000297617, 0, 0, 8.16384e-05, 0, 0, -7.93718, -0.767753, 2.1687, -20.9736, 0, 0, 0, -0.487861, 3.97248, -20.7163, 0.189405, 0.0235452, 0, 0.247943, -0.259471, 0, -0.0861502, 0.0124496, 0.00862263, -0.0861502, 0.0124496, 0.00862263, -0.00457962, 1.63293, 0.00457962, 0.267038, 0.0217099, 0.021707, -0.275555, -0.0110957, 0.00862263, -0.0785083, -0.00396649, 9.2351e-05, 0.0190956, 0.281181, 0.021707, 0.273019, -0.257485, -0.0224112, 0.49507, 0.311292, 0.0447464, -0.0472066, -0.00410351, 0.00469817, 0.768089, 0.0538075, 0.0223351, -8.70626, -3.06202, 0.0355097, 0.266768, 0.0197618, 0.0234929, 0.0739843, -0.00962876, -0.0198142, 0, 0, 0, 21.0994, 0.0739843, -0.00962876, -0.0198142, 5.03436, 5.41793, 5.46597, 5.18115, 0.380542, 0.400576, 0.403039, 0.388288, -0.501321, -0.0340457, 0.00115773, 
[2024-07-23 13:58:19.733789] [0x0000007f8defc9a0] [LogDataTag] [0x00003de4] [3546] , 10.7316, 1546, 0, 0, 1.89428, 4.86853, -0.447178, -0.458734, 0.00472132, 0.00472299, -0.787326, -0.765194, 0.166191, 0.166064, -0.3, -0.3, -4.8619e-05, 1.52472e-05, 0, 0, 0, 0, 0.0103433, 0.010098, -0.0198605, -0.0235754, 0.0214966, -0.0734215, -0.0670109, 0, 0, -0.0241573, 0, 0, -0.118239, 0, 0, -0.377611, 0, 0, -0.0244613, 0, 0, -0.116835, 0, 0, -0.371835, 0.010098, -0.0198605, 0.000581931, 0.0214966, -0.0734215, 0.0512276, 0.00164272, -0.00529337, -0.00293438, 0, 0, 0.000304015, 0, 0, 8.46145e-05, 0, 0, -8.2484, -0.768108, 2.1694, -21.153, 0, 0, 0, -0.485976, 3.98861, -20.895, 0.188569, 0.0232538, 0, 0.165077, -0.0596651, 0, -0.0861502, 0.0124496, 0.00862263, -0.0861502, 0.0124496, 0.00862263, -0.00457962, 1.63293, 0.00457962, 0.267038, 0.0217099, 0.021707, -0.27472, -0.0108043, 0.00862263, -0.0812639, -0.00407745, 0.000178577, 0.101961, 0.0813751, 0.021707, 0.190089, -0.0584459, -0.00522213, 0.490938, 0.0816331, 0.0279124, -0.0422559, -0.000990588, 0.00514563, 0.681026, 0.0231872, 0.0226902, -10.7195, -0.839444, -0.0305688, 0.266768, 0.0197618, 0.0234929, -0.00287102, -0.00104403, -0.019955, 0, 0, 0, 21.2778, -0.00287102, -0.00104403, -0.019955, 5.27421, 5.26659, 5.35935, 5.37767, 0.393148, 0.392752, 0.397559, 0.398504, -0.414258, -0.00342542, 0.00080263, 
[2024-07-23 13:58:19.743775] [0x0000007f8defc9a0] [LogDataTag] [0x00003de4] [3550] , 10.7416, 1554, 0, 0, -0.00515839, -0.00656877, -0.355384, -0.461374, 0.00470585, 0.0047061, 0.00471536, -0.76012, -7.08817e-05, -9.02619e-05, 0.0428088, -0.3, -3.15663e-06, -3.4837e-06, 0, 0, 0, 0, 0.0130875, 0.0109468, -0.0209758, -0.0254073, -0.00651206, -0.0516819, -0.101853, 0, 0, -0.0253397, 0, 0, -0.122015, 0, 0, -0.382049, 0, 0, -0.0256454, 0, 0, -0.120569, 0, 0, -0.376729, 0.0109468, -0.0209758, -6.75877e-05, -0.00651206, -0.0516819, 0.0201614, 0.0017437, -0.00549198, -0.00292856, 0, 0, 0.000305783, 0, 0, 8.76547e-05, 0, 0, -8.56589, -0.280043, 1.81163, -20.3541, 0, 0, 0, 0.0982662, 3.26156, -20.1743, 0.16028, -0.00487083, 0, 0.0888379, 0.0331333, 0, -0.0713524, 0.0174683, 0.0125393, -0.0713524, 0.0174683, 0.0125393, -0.00658139, 1.6241, 0.00658139, 0.806737, 0.138942, 0.1176, -0.231633, 0.0223391, 0.0125393, -0.084011, -0.00418549, 0.000264804, 0.717899, 0.105808, 0.1176, 0.109983, 0.0310762, 0.00196762, 0.463848, -0.0162834, 0.0204169, -0.0373466, -0.000174256, 0.00542475, 0.573832, 0.0147928, 0.0223845, -10.8513, -0.990993, -0.155443, 0.804683, 0.130205, 0.127189, -0.135635, -0.0425216, -0.0714742, 0, 0, 0, 20.4365, -0.135635, -0.0425216, -0.0714742, 5.13074, 4.73609, 4.86945, 5.70018, 0.38564, 0.364485, 0.371719, 0.414906, 0.230851, 0.115413, 0.104804, 
[2024-07-23 13:58:19.753621] [0x0000007f8defc9a0] [LogDataTag] [0x00003de4] [3555] , 10.7516, 1443, 0, 0, -0.00515839, -0.00656877, -0.355384, -0.461374, 0.00470585, 0.0047061, 0.00471536, -0.76012, -7.08817e-05, -9.02619e-05, 0.0428088, -0.3, -3.15663e-06, -3.4837e-06, 0, 0, 0, 0, 0.0130875, 0.0109468, -0.0209758, -0.0254073, -0.00651206, -0.0516819, -0.101853, 0, 0, -0.0265598, 0, 0, -0.125835, 0, 0, -0.387055, 0, 0, -0.0268718, 0, 0, -0.124366, 0, 0, -0.381536, 0.0109468, -0.0209758, 0.00115256, -0.00651206, -0.0516819, 0.0239819, 0.00185316, -0.00570174, -0.00292924, 0, 0, 0.000311966, 0, 0, 9.07125e-05, 0, 0, -8.89211, -0.280428, 1.81236, -20.5406, 0, 0, 0, 0.101149, 3.27559, -20.3602, 0.159513, -0.00496791, 0, -0.411547, -0.381331, 0, -0.0713524, 0.0174683, 0.0125393, -0.0713524, 0.0174683, 0.0125393, -0.00658139, 1.6241, 0.00658139, 0.806737, 0.138942, 0.1176, -0.230865, 0.0224362, 0.0125393, -0.0863274, -0.0039621, 0.000390197, 1.21828, 0.520273, 0.1176, -0.390463, -0.382343, -0.027582, 0.855782, 0.387226, 0.0484121, -0.0327081, -0.00033709, 0.00562892, 0.465319, 0.00488287, 0.0208301, -14.9047, -5.84766, 0.122668, 0.804683, 0.130205, 0.127189, -0.191941, -0.0823487, -0.0715703, 0, 0, 0, 20.6223, -0.191941, -0.0823487, -0.0715703, 5.20202, 4.75725, 4.68686, 5.97615, 0.389382, 0.365639, 0.361792, 0.428608, 0.339365, 0.125323, 0.106358, 
[2024-07-23 13:58:19.763789] [0x0000007f8defc9a0] [LogDataTag] [0x00003de4] [3559] , 10.7616, 1565, 0, 0, 0.363406, 4.84107, -2.00454, -0.466013, 0.00471807, -0.798766, 0.00472329, -0.751189, -0.0429676, -0.3, -0.152251, -0.3, -4.71105e-05, -2.5716e-06, 0, 0, 0, 0, 0.0136716, 0.0112487, -0.0213334, -0.026109, 0.0289181, -0.0659346, -0.0921301, 0, 0, -0.0278182, 0, 0, -0.129706, 0, 0, -0.391979, 0, 0, -0.0281368, 0, 0, -0.128212, 0, 0, -0.386237, 0.0112487, -0.0213334, 0.00170913, 0.0289181, -0.0659346, 0.0375757, 0.00196263, -0.00591149, -0.00291771, 0, 0, 0.000318631, 0, 0, 9.38322e-05, 0, 0, -9.22605, -0.948233, 2.09144, -20.9221, 0, 0, 0, -0.51885, 3.46882, -20.7535, 0.165562, 0.0249954, 0, -0.578146, -0.504236, 0, -0.065368, 0.018975, 0.0153642, -0.065368, 0.018975, 0.0153642, -0.00799232, 1.62066, 0.00799232, 0.757864, 0.227814, 0.426381, -0.23093, -0.00602038, 0.0153642, -0.088636, -0.00373774, 0.000515589, 1.33601, 0.73205, 0.426381, -0.557046, -0.502585, -0.0332119, 0.873317, 0.448991, 0.0552687, -0.0241503, 0.00353517, 0.00611304, 0.316271, -0.0535937, 0.0220568, -13.7583, -5.94609, 0.224385, 0.749773, 0.19948, 0.440275, -0.166753, -0.0807374, -0.222753, 0, 0, 0, 21.0478, -0.166753, -0.0807374, -0.222753, 4.88399, 4.54474, 5.22588, 6.39314, 0.372502, 0.35395, 0.390629, 0.44879, 0.433502, 0.253074, 0.418218, 
[2024-07-23 13:58:19.773630] [0x0000007f8defc9a0] [LogDataTag] [0x00003de4] [3563] , 10.7716, 1388, 0, 0, -0.00879454, -0.00897267, -0.356858, -0.462936, 0.00470663, 0.00470668, 0.00471723, -0.757115, -0.0292183, -0.0292094, 0.0427094, -0.3, -2.86469e-06, -4.30896e-06, 0, 0, 0, 0, 0.0123755, 0.0114662, -0.021584, -0.0268611, -0.00884779, -0.0544556, -0.0966014, 0, 0, -0.0291152, 0, 0, -0.133626, 0, 0, -0.396576, 0, 0, -0.0294392, 0, 0, -0.1321, 0, 0, -0.390823, 0.0114662, -0.021584, 0.00225412, -0.00884779, -0.0544556, 0.0370241, 0.00207512, -0.00612483, -0.00290062, 0, 0, 0.000323991, 0, 0, 9.70185e-05, 0, 0, -9.56728, -0.256648, 1.88945, -20.9546, 0, 0, 0, 0.192529, 3.06695, -20.8156, 0.14628, -0.00924901, 0, -0.462158, 0.00177671, 0, -0.0561719, 0.0199261, 0.0167146, -0.0561719, 0.0199261, 0.0167146, -0.00863722, 1.61512, 0.00863722, 0.875352, 0.0187242, 0.149722, -0.202452, 0.0291752, 0.0167146, -0.0909453, -0.00379795, 0.000669232, 1.33751, 0.0169475, 0.149722, -0.443612, -0.000815374, -0.000385965, 0.622301, -0.112239, 0.0246866, -0.0154171, 0.00802509, 0.00666573, 0.178689, -0.113055, 0.0243006, -10.807, -0.0593766, -0.133446, 0.872369, 0.0102906, 0.150507, -0.18684, -0.0409069, -0.0904503, 0, 0, 0, 21.0412, -0.18684, -0.0409069, -0.0904503, 5.35507, 4.72084, 4.95577, 6.00952, 0.397338, 0.363652, 0.376354, 0.430246, 0.69368, 0.123345, 0.126207, 
[2024-07-23 13:58:19.783850] [0x0000007f8defc9a0] [LogDataTag] [0x00003de4] [3568] , 10.7816, 1605, 0, 0, 0.355166, 0.36013, -0.357833, -0.46512, 0.00470931, 0.00471399, 0.00471856, -0.75291, -0.0435241, -0.0431888, 0.0426437, -0.3, -7.6112e-06, -4.25149e-06, 0, 0, 0, 0, 0.0132777, 0.0117326, -0.0219004, -0.02762, 0.015661, -0.0627544, -0.0953639, 0, 0, -0.0304515, 0, 0, -0.137591, 0, 0, -0.400868, 0, 0, -0.0307794, 0, 0, -0.136029, 0, 0, -0.395292, 0.0117326, -0.0219004, 0.00283152, 0.015661, -0.0627544, 0.0422274, 0.00218978, -0.00634067, -0.00287808, 0, 0, 0.000327959, 0, 0, 0.000100258, 0, 0, -9.91585, -0.720812, 2.05658, -21.1302, 0, 0, 0, -0.231372, 3.08427, -21.0159, 0.14571, 0.011009, 0, -0.64569, -0.323773, 0, -0.0481182, 0.0213103, 0.0189155, -0.0481182, 0.0213103, 0.0189155, -0.00971415, 1.61082, 0.00971415, 1.09277, 0.210821, 0.222621, -0.193828, 0.0103014, 0.0189155, -0.0929699, -0.00350619, 0.000836378, 1.73846, 0.534594, 0.222621, -0.627911, -0.324293, -0.0160018, 0.69853, 0.210645, 0.038968, -0.00919408, 0.00690269, 0.0069126, 0.0706181, -0.113648, 0.0229662, -11.6224, -4.80942, 0.160087, 1.08802, 0.199872, 0.232453, -0.248953, -0.101391, -0.130188, 0, 0, 0, 21.2423, -0.248953, -0.101391, -0.130188, 5.29287, 4.68821, 4.80836, 6.45284, 0.394118, 0.361867, 0.368416, 0.451634, 1.01741, 0.31352, 0.209487, 
[2024-07-23 13:58:19.793702] [0x0000007f8defc9a0] [LogDataTag] [0x00003de4] [3572] , 10.7916, 1512, 0, 0, 0.000981038, 0.00112348, -2.00601, -0.472295, 0.00470545, 0.00470545, 0.00471926, -0.739059, 1.34805e-05, 1.54378e-05, -0.152535, -0.3, -4.39629e-06, -1.46047e-05, 0, 0, 0, 0, 0.0177023, 0.011937, -0.022198, -0.0284776, -0.000260986, -0.0659797, -0.115537, 0, 0, -0.0318274, 0, 0, -0.1416, 0, 0, -0.404942, 0, 0, -0.0321583, 0, 0, -0.140001, 0, 0, -0.399644, 0.011937, -0.022198, 0.00334981, -0.000260986, -0.0659797, 0.0260626, 0.00230711, -0.00655967, -0.00284977, 0, 0, 0.00033094, 0, 0, 0.000103538, 0, 0, -10.2719, -0.433553, 2.12896, -20.7762, 0, 0, 0, 0.0847882, 2.93086, -20.6827, 0.140767, -0.00409945, 0, -0.632259, -0.0910834, 0, -0.0382848, 0.0229268, 0.0196654, -0.0382848, 0.0229268, 0.0196654, -0.0100522, 1.60614, 0.0100522, 0.993573, 0.0837502, 0.0468077, -0.179052, 0.0270262, 0.0196654, -0.0949081, -0.00340318, 0.00102553, 1.62583, 0.174834, 0.0468077, -0.615803, -0.09342, -0.00398002, 0.570198, -0.0683226, 0.0285471, -0.00220879, 0.00900914, 0.00730228, -0.0456057, -0.161743, 0.024567, -8.76482, 0.423937, 0.0167489, 0.9925, 0.0818977, 0.0499666, -0.20034, -0.0349118, -0.0453605, 0, 0, 0, 20.8895, -0.20034, -0.0349118, -0.0453605, 5.47385, 4.74789, 4.79188, 5.87588, 0.403442, 0.365129, 0.367522, 0.423663, 1.03811, 0.24364, 0.0253996, 
[2024-07-23 13:58:19.803648] [0x0000007f8defc9a0] [LogDataTag] [0x00003de4] [3576] , 10.8016, 1411, 0, 0, 0.358433, 1.88961, -0.357163, -0.467476, 0.00471218, 0.00472266, 0.00471764, -0.748366, -0.0433035, 0.166089, 0.0426888, -0.3, -1.87695e-05, 4.59209e-06, 0, 0, 0, 0, 0.0149006, 0.0122641, -0.0225392, -0.0293453, 0.0227807, -0.0613185, -0.103062, 0, 0, -0.0332434, 0, 0, -0.145649, 0, 0, -0.409167, 0, 0, -0.033579, 0, 0, -0.14402, 0, 0, -0.403885, 0.0122641, -0.0225392, 0.00389813, 0.0227807, -0.0613185, 0.0425876, 0.00242648, -0.00678165, -0.00281627, 0, 0, 0.00033565, 0, 0, 0.000106847, 0, 0, -10.6361, -0.872731, 2.05694, -21.228, 0, 0, 0, -0.297831, 2.6894, -21.1731, 0.126331, 0.0140656, 0, -0.604271, -0.215861, 0, -0.0289681, 0.0250053, 0.0212398, -0.0289681, 0.0250053, 0.0212398, -0.010801, 1.60299, 0.010801, 1.11951, 0.261236, 0.20975, -0.155299, 0.0109397, 0.0212398, -0.0966987, -0.00313292, 0.00122219, 1.72378, 0.477097, 0.20975, -0.589944, -0.216731, -0.00671466, 0.45669, 0.0592281, 0.0314492, 0.00349319, 0.00832592, 0.00758775, -0.133254, -0.157503, 0.0247345, -6.67478, -0.882397, 0.167616, 1.11426, 0.255053, 0.217163, -0.205842, -0.0547162, -0.12729, 0, 0, 0, 21.3453, -0.205842, -0.0547162, -0.12729, 5.34804, 4.69878, 5.04403, 6.25443, 0.396975, 0.362446, 0.381056, 0.442141, 1.24752, 0.412556, 0.192428, 
[2024-07-23 13:58:19.813632] [0x0000007f8defc9a0] [LogDataTag] [0x00003de4] [3581] , 10.8116, 1440, 0, 0, 0.360762, 1.89557, -2.00602, -0.473882, 0.00471471, 0.00472096, 0.00471922, -0.735989, -0.0431462, 0.166219, -0.152538, -0.3, -2.29911e-05, -3.47898e-06, 0, 0, 0, 0, 0.018316, 0.012582, -0.0230459, -0.0312753, 0.0271602, -0.064201, -0.116002, 0, 0, -0.0346999, 0, 0, -0.149741, 0, 0, -0.412904, 0, 0, -0.0350374, 0, 0, -0.148074, 0, 0, -0.408001, 0.012582, -0.0230459, 0.00342458, 0.0271602, -0.064201, 0.0337387, 0.00254912, -0.00700704, -0.00277729, 0, 0, 0.000337537, 0, 0, 0.000110204, 0, 0, -11.0075, -0.965776, 2.1313, -20.9859, 0, 0, 0, -0.331494, 2.35233, -20.9819, 0.111633, 0.0157977, 0, -0.726259, 0.0544149, 0, -0.00943676, 0.0277198, 0.0243977, -0.00943676, 0.0277198, 0.0243977, -0.0122642, 1.59925, 0.0122642, 1.02344, 0.161215, 0.303607, -0.121069, 0.0119221, 0.0243977, -0.0982516, -0.00302352, 0.00143458, 1.7497, 0.1068, 0.303607, -0.715005, 0.0533548, 4.2512e-06, 0.515003, -0.219682, 0.0264064, 0.00806009, 0.0089182, 0.00790224, -0.200002, -0.166327, 0.0264107, -6.51422, 3.59898, -0.107743, 1.01502, 0.158344, 0.304999, -0.203466, 0.00241049, -0.174251, 0, 0, 0, 21.1159, -0.203466, 0.00241049, -0.174251, 5.31637, 4.38491, 5.25396, 6.1607, 0.395336, 0.345004, 0.392094, 0.437613, 1.21502, 0.324671, 0.278588, 
[2024-07-23 13:58:19.823859] [0x0000007f8defc9a0] [LogDataTag] [0x00003de4] [3585] , 10.8216, 1558, 0, 0, 0.360762, 1.89557, -2.00602, -0.473882, 0.00471471, 0.00472096, 0.00471922, -0.735989, -0.0431462, 0.166219, -0.152538, -0.3, -2.29911e-05, -3.47898e-06, 0, 0, 0, 0, 0.018316, 0.012582, -0.0230459, -0.0312753, 0.0271602, -0.064201, -0.116002, 0, 0, -0.0361973, 0, 0, -0.15387, 0, 0, -0.417082, 0, 0, -0.0365406, 0, 0, -0.152179, 0, 0, -0.412007, 0.012582, -0.0230459, 0.00492199, 0.0271602, -0.064201, 0.0378677, 0.00267494, -0.0072375, -0.00274304, 0, 0, 0.000343327, 0, 0, 0.000113579, 0, 0, -11.3876, -0.966217, 2.13211, -21.1974, 0, 0, 0, -0.326054, 2.35515, -21.1933, 0.11066, 0.0153836, 0, -0.898903, 0.192344, 0, -0.00943676, 0.0277198, 0.0243977, -0.00943676, 0.0277198, 0.0243977, -0.0122642, 1.59925, 0.0122642, 1.02344, 0.161215, 0.303607, -0.120097, 0.0123362, 0.0243977, -0.0994623, -0.0029043, 0.00167856, 1.92234, -0.0311291, 0.303607, -0.887732, 0.19124, 0.00130353, 0.622588, -0.321578, 0.0240297, 0.0132101, 0.00672138, 0.0081663, -0.265144, -0.130337, 0.0253332, -7.02499, 4.94484, -0.243066, 1.01502, 0.158344, 0.304999, -0.206094, 0.0179485, -0.174262, 0, 0, 0, 21.3262, -0.206094, 0.0179485, -0.174262, 5.41468, 4.39168, 5.34046, 6.17939, 0.400409, 0.345386, 0.396584, 0.438519, 1.28017, 0.288681, 0.279665, 
[2024-07-23 13:58:19.833865] [0x0000007f8defc9a0] [LogDataTag] [0x00003de4] [3590] , 10.8316, 1619, 0, 0, 0.00542665, 0.00845419, -2.00551, -0.463284, 0.00470589, 0.00470654, 0.00472058, -0.756445, 7.45679e-05, 0.0271718, -0.152438, -0.3, -5.72907e-06, -1.73898e-05, 0, 0, 0, 0, 0.0221442, 0.0129301, -0.0234018, -0.0335066, 0.00513805, -0.0673161, -0.132614, 0, 0, -0.037736, 0, 0, -0.158041, 0, 0, -0.42079, 0, 0, -0.0380827, 0, 0, -0.156318, 0, 0, -0.415884, 0.0129301, -0.0234018, 0.00422941, 0.00513805, -0.0673161, 0.0254274, 0.00280076, -0.00746796, -0.00269382, 0, 0, 0.000346674, 0, 0, 0.000117013, 0, 0, -11.775, -0.571128, 2.20481, -20.8521, 0, 0, 0, 0.19771, 2.02601, -20.8771, 0.0967372, -0.00946987, 0, -0.846602, 0.215632, 0, 0.00930677, 0.0338335, 0.0285542, 0.00930677, 0.0338335, 0.0285542, -0.0141984, 1.60533, 0.0141984, 0.982372, 0.292863, 0.285461, -0.0874304, 0.0433034, 0.0285542, -0.100663, -0.00278094, 0.00192254, 1.82897, 0.0772315, 0.285461, -0.838361, 0.211729, -0.00255673, 0.502967, -0.292618, 0.0254593, 0.019436, 0.0035056, 0.0084066, -0.335394, -0.080889, 0.0229026, -5.59719, 5.40857, -0.285892, 0.972715, 0.295506, 0.28256, -0.210692, 0.0121514, -0.171617, 0, 0, 0, 20.9761, -0.210692, 0.0121514, -0.171617, 5.32919, 4.31514, 5.22119, 6.11062, 0.396, 0.341057, 0.390384, 0.435181, 1.30811, 0.376395, 0.259658, 
[2024-07-23 13:58:19.843806] [0x0000007f8defc9a0] [LogDataTag] [0x00003de4] [3594] , 10.8416, 1558, 0, 0, 0.000805173, 0.00100553, -0.355076, -0.453875, 0.00470544, 0.00470545, 0.00471499, -0.774515, 1.10639e-05, 1.38171e-05, 0.0428296, -0.3, -6.70611e-06, -7.11061e-06, 0, 0, 0, 0, 0.0263727, 0.0133298, -0.023724, -0.0358335, -0.00293467, -0.0526634, -0.153592, 0, 0, -0.0393164, 0, 0, -0.162249, 0, 0, -0.424055, 0, 0, -0.0396638, 0, 0, -0.160488, 0, 0, -0.419632, 0.0133298, -0.023724, 0.00348294, -0.00293467, -0.0526634, 0.00865632, 0.00293006, -0.00770198, -0.00265153, 0, 0, 0.000347354, 0, 0, 0.000120479, 0, 0, -12.1696, -0.4364, 1.94693, -20.3959, 0, 0, 0, 0.395214, 1.43762, -20.4389, 0.0702085, -0.0193339, 0, -0.910899, -0.206278, 0, 0.0255716, 0.0377428, 0.0316009, 0.0255716, 0.0377428, 0.0316009, -0.0155591, 1.61282, 0.0155591, 0.914171, 0.16804, 0.188218, -0.0446369, 0.0570767, 0.0316009, -0.101538, -0.0023479, 0.00220808, 1.82507, 0.374318, 0.188218, -0.906502, -0.211354, 0.00475641, 0.515136, 0.184551, 0.0152873, 0.0244657, 0.000579419, 0.00866119, -0.391366, -0.0268033, 0.0200437, -6.55395, 0.321103, 0.0904161, 0.907069, 0.172794, 0.183725, -0.261121, -0.00859214, -0.127105, 0, 0, 0, 20.4933, -0.261121, -0.00859214, -0.127105, 5.3786, 4.24312, 4.82396, 6.04756, 0.398552, 0.336954, 0.369261, 0.432107, 1.29843, 0.199598, 0.163682, 
